SpectraSuite Data File
++++++++++++++++++++++++++++++++++++
Date: Tue Oct 11 14:23:53 EEST 2016
User: OO Maya
Dark Spectrum Present: No
Reference Spectrum Present: No
Number of Sampled Component Spectra: 1
Spectrometers: MAYP11278
Integration Time (usec): 1600000 (MAYP11278)
Spectra Averaged: 3 (MAYP11278)
Boxcar Smoothing: 0 (MAYP11278)
Correct for Electrical Dark: No (MAYP11278)
Strobe/Lamp Enabled: No (MAYP11278)
Correct for Detector Non-linearity: Yes (MAYP11278)
Correct for Stray Light: No (MAYP11278)
Number of Pixels in Processed Spectrum: 2068
>>>>>Begin Processed Spectral Data<<<<<
187.82	2253.18
188.30	2192.65
188.78	2155.74
189.26	2159.40
189.73	2669.24
190.21	2708.82
190.69	2674.56
191.17	2692.19
191.64	2749.40
192.12	2702.17
192.60	2680.88
193.07	2641.97
193.55	2700.51
194.03	2696.85
194.51	2720.13
194.98	2675.90
195.46	2761.70
195.94	2684.54
196.42	2699.51
196.89	2844.85
197.37	2699.51
197.85	2678.89
198.32	2677.23
198.80	2675.56
199.28	2721.79
199.76	2752.06
200.23	2694.52
200.71	2688.87
201.19	2749.73
201.66	2754.72
202.14	2726.78
202.62	2660.26
203.09	2731.10
203.57	2673.23
204.05	2756.71
204.53	2798.29
205.00	2678.56
205.48	2679.55
205.96	2804.94
206.43	2692.86
206.91	2736.76
207.39	2862.48
207.86	2726.78
208.34	2750.06
208.82	2716.14
209.29	2770.68
209.77	2742.41
210.25	2710.15
210.72	2715.81
211.20	2742.08
211.68	2721.13
212.15	2700.51
212.63	2827.89
213.11	2764.03
213.58	2699.84
214.06	2852.17
214.53	2733.10
215.01	2804.61
215.49	2735.43
215.96	2784.65
216.44	2763.37
216.92	2762.37
217.39	2698.84
217.87	2721.13
218.35	2782.99
218.82	2661.93
219.30	2696.85
219.77	2707.82
220.25	2736.09
220.73	2861.48
221.20	2695.85
221.68	2789.64
222.15	2694.52
222.63	2768.35
223.11	2691.19
223.58	2780.33
224.06	2724.45
224.53	2705.50
225.01	2674.56
225.49	2736.43
225.96	2689.86
226.44	2738.75
226.91	2773.34
227.39	2725.45
227.87	2797.62
228.34	2762.37
228.82	2759.04
229.29	2731.10
229.77	2730.11
230.24	2715.81
230.72	2761.70
231.20	2820.57
231.67	2747.73
232.15	2750.06
232.62	2690.53
233.10	2741.08
233.57	2754.05
234.05	2942.97
234.53	2751.39
235.00	2706.83
235.48	2695.52
235.95	2694.52
236.43	2792.63
236.90	2846.18
237.38	2726.78
237.85	2761.37
238.33	2740.42
238.80	2749.40
239.28	2733.77
239.75	2694.19
240.23	2770.35
240.71	2814.25
241.18	2744.74
241.66	2725.78
242.13	2782.99
242.61	2805.61
243.08	2684.88
243.56	2693.52
244.03	2773.68
244.51	2802.94
244.98	2718.13
245.46	2799.29
245.93	4741.11
246.41	2680.22
246.88	2730.77
247.36	2733.10
247.83	2750.40
248.31	2754.72
248.78	2663.92
249.26	2748.73
249.73	2776.00
250.21	2756.05
250.68	2829.88
251.16	2745.41
251.63	2842.86
252.10	2812.26
252.58	2708.16
253.05	2802.28
253.53	2736.43
254.00	2719.13
254.48	2739.09
254.95	2760.04
255.43	2783.99
255.90	2715.81
256.38	2766.03
256.85	2757.38
257.33	2788.64
257.80	2918.35
258.27	2752.72
258.75	2723.46
259.22	2749.06
259.70	2778.67
260.17	2839.86
260.65	2749.06
261.12	2702.17
261.59	2814.59
262.07	2709.49
262.54	2756.71
263.02	2726.78
263.49	2663.59
263.97	2791.97
264.44	2801.28
264.91	2734.43
265.39	2751.73
265.86	2770.35
266.34	2788.98
266.81	2717.14
267.28	2755.05
267.76	2775.34
268.23	2748.73
268.71	2661.59
269.18	2705.16
269.65	2729.77
270.13	2767.02
270.60	2823.23
271.08	2746.74
271.55	2739.09
272.02	2699.84
272.50	2711.81
272.97	2636.32
273.44	2749.40
273.92	2969.91
274.39	2779.33
274.87	2800.62
275.34	2732.10
275.81	2724.45
276.29	2764.03
276.76	2794.96
277.23	2681.88
277.71	2737.09
278.18	2691.86
278.65	3013.14
279.13	2729.44
279.60	2693.52
280.07	2987.20
280.55	2798.29
281.02	2934.65
281.50	2702.83
281.97	2803.94
282.44	2724.12
282.91	2741.42
283.39	2772.68
283.86	2696.85
284.33	2688.20
284.81	2787.98
285.28	2746.40
285.75	2746.74
286.23	2765.69
286.70	2677.23
287.17	2766.03
287.65	2827.22
288.12	2745.07
288.59	2758.71
289.07	2647.63
289.54	2821.24
290.01	2705.16
290.48	2758.04
290.96	2704.50
291.43	2785.98
291.90	2844.85
292.38	2711.15
292.85	2810.93
293.32	2717.14
293.79	2777.00
294.27	2765.69
294.74	2705.16
295.21	2757.05
295.69	2756.38
296.16	2826.23
296.63	2839.20
297.10	2780.66
297.58	2779.33
298.05	2765.03
298.52	2721.13
298.99	2827.89
299.47	2744.08
299.94	2766.03
300.41	2738.09
300.88	2800.62
301.36	2791.97
301.83	2798.62
302.30	2694.19
302.77	2778.00
303.25	2787.98
303.72	2709.82
304.19	2718.13
304.66	2689.53
305.13	2747.73
305.61	2765.36
306.08	2752.72
306.55	2785.32
307.02	2738.09
307.49	2713.48
307.97	2760.37
308.44	2727.11
308.91	2792.97
309.38	2803.28
309.86	2764.70
310.33	2763.70
310.80	2760.04
311.27	2711.15
311.74	2784.98
312.21	2739.09
312.69	2879.44
313.16	2729.11
313.63	2735.10
314.10	2749.06
314.57	2712.48
315.05	2705.50
315.52	2795.29
315.99	2780.00
316.46	2760.71
316.93	2778.33
317.40	2762.04
317.88	2902.06
318.35	2748.07
318.82	2745.74
319.29	2676.89
319.76	2777.33
320.23	2875.78
320.70	2801.28
321.18	2736.76
321.65	2668.58
322.12	2687.54
322.59	2823.56
323.06	2737.76
323.53	2878.78
324.00	2685.54
324.48	2771.02
324.95	2742.41
325.42	2728.78
325.89	2730.77
326.36	2725.78
326.83	2763.70
327.30	2775.34
327.77	2761.70
328.24	2756.38
328.72	2737.76
329.19	2713.81
329.66	2737.42
330.13	2710.48
330.60	2795.29
331.07	2778.67
331.54	2855.49
332.01	2716.47
332.48	2852.83
332.95	2791.30
333.43	2773.68
333.90	2834.87
334.37	2757.38
334.84	2768.35
335.31	2972.90
335.78	2703.83
336.25	2753.72
336.72	2716.80
337.19	2780.66
337.66	2718.13
338.13	2743.41
338.60	2831.21
339.07	2809.26
339.54	2686.87
340.01	2720.79
340.49	2705.83
340.96	2778.67
341.43	2816.25
341.90	2744.08
342.37	2767.36
342.84	2797.62
343.31	2781.66
343.78	2733.43
344.25	2753.06
344.72	2711.15
345.19	2746.74
345.66	2776.00
346.13	2750.40
346.60	2722.79
347.07	2845.18
347.54	2742.75
348.01	2808.27
348.48	2762.70
348.95	2686.21
349.42	2754.05
349.89	2803.61
350.36	2739.42
350.83	2706.16
351.30	2776.00
351.77	2848.51
352.24	2762.04
352.71	2760.71
353.18	2754.72
353.65	2775.67
354.12	2774.67
354.59	2786.98
355.06	2773.01
355.53	2854.83
356.00	2731.10
356.47	2838.86
356.94	2717.80
357.41	2922.01
357.88	2781.33
358.35	2687.54
358.82	2712.15
359.28	2727.78
359.75	2717.80
360.22	2796.96
360.69	2832.54
361.16	2730.44
361.63	2753.72
362.10	2746.07
362.57	2750.40
363.04	2751.73
363.51	2902.39
363.98	2773.01
364.45	2725.45
364.92	2775.01
365.39	2735.43
365.86	2703.83
366.32	2763.03
366.79	2735.76
367.26	4038.67
367.73	2655.27
368.20	2704.50
368.67	2791.97
369.14	2702.50
369.61	2788.64
370.08	2751.06
370.55	2738.42
371.02	3907.60
371.48	2759.04
371.95	2725.78
372.42	2681.22
372.89	2745.41
373.36	2754.39
373.83	2682.88
374.30	2716.14
374.77	2776.34
375.23	2671.24
375.70	2835.54
376.17	2735.10
376.64	2687.54
377.11	2703.83
377.58	2761.70
378.05	2779.33
378.51	2751.06
378.98	2751.39
379.45	2750.40
379.92	2785.32
380.39	2904.39
380.86	2752.39
381.33	2829.55
381.79	2822.57
382.26	2682.88
382.73	2775.34
383.20	2739.42
383.67	2802.61
384.14	2762.37
384.60	3084.32
385.07	2749.06
385.54	2721.13
386.01	2732.44
386.48	2851.17
386.94	2701.17
387.41	2687.20
387.88	2796.29
388.35	2767.36
388.82	2824.23
389.28	2715.81
389.75	2780.33
390.22	2759.37
390.69	2784.32
391.16	2771.68
391.62	2753.06
392.09	2759.71
392.56	2764.36
393.03	2741.08
393.50	2876.78
393.96	2747.07
394.43	2812.92
394.90	2710.15
395.37	2797.62
395.83	3066.36
396.30	2676.56
396.77	2770.35
397.24	2805.61
397.70	2701.50
398.17	2745.74
398.64	2715.81
399.11	2700.17
399.57	2821.24
400.04	2687.20
400.51	2749.73
400.98	2723.46
401.44	2783.65
401.91	2787.65
402.38	2753.72
402.84	2712.48
403.31	2833.54
403.78	2753.39
404.25	2839.86
404.71	2874.45
405.18	2825.56
405.65	2722.46
406.12	2801.95
406.58	2774.34
407.05	2845.52
407.52	2755.38
407.98	2765.03
408.45	2795.29
408.92	2707.16
409.38	2823.56
409.85	2706.49
410.32	2806.94
410.78	2716.80
411.25	2819.24
411.72	2734.43
412.18	2666.58
412.65	2779.00
413.12	2743.41
413.59	2756.05
414.05	2797.62
414.52	2847.84
414.98	2749.73
415.45	2855.16
415.92	2774.01
416.38	2764.03
416.85	2870.46
417.32	2770.68
417.78	2750.06
418.25	2772.68
418.72	2748.73
419.18	2808.93
419.65	2713.15
420.12	2801.28
420.58	2715.14
421.05	2741.42
421.51	2726.12
421.98	2781.66
422.45	2721.13
422.91	2756.05
423.38	2778.00
423.85	2786.65
424.31	2735.43
424.78	2798.62
425.24	2758.04
425.71	2817.91
426.18	2733.10
426.64	2806.60
427.11	2806.94
427.57	2809.60
428.04	2702.17
428.51	2814.25
428.97	2763.37
429.44	2749.73
429.90	2770.68
430.37	2976.89
430.83	2697.18
431.30	2744.41
431.77	2843.85
432.23	2830.55
432.70	2731.77
433.16	2743.41
433.63	2782.99
434.09	2724.79
434.56	2802.94
435.03	2693.52
435.49	2807.27
435.96	2759.37
436.42	2688.53
436.89	2803.61
437.35	2787.31
437.82	2759.37
438.28	2734.10
438.75	2746.74
439.21	3035.10
439.68	2777.00
440.14	2794.96
440.61	2798.62
441.07	2726.12
441.54	2738.42
442.00	2893.74
442.47	2717.80
442.94	2769.69
443.40	2766.36
443.87	2673.57
444.33	2850.17
444.80	2781.33
445.26	2761.04
445.73	2765.69
446.19	2783.65
446.65	2742.41
447.12	2773.01
447.58	2733.10
448.05	2727.78
448.51	2799.29
448.98	2788.31
449.44	2764.03
449.91	2741.42
450.37	2710.82
450.84	2716.14
451.30	2769.69
451.77	2780.33
452.23	2698.84
452.70	2809.93
453.16	2754.05
453.62	2776.34
454.09	2751.39
454.55	2797.96
455.02	2727.11
455.48	2765.36
455.95	2798.29
456.41	2709.49
456.88	2823.90
457.34	2736.09
457.80	2750.73
458.27	2696.85
458.73	2751.73
459.20	2756.71
459.66	2802.61
460.13	2744.41
460.59	2705.50
461.05	2840.86
461.52	2802.94
461.98	2714.48
462.45	2689.86
462.91	2822.90
463.37	2740.75
463.84	2756.05
464.30	2770.02
464.76	2711.15
465.23	2717.14
465.69	2807.93
466.16	2760.71
466.62	2775.67
467.08	2798.62
467.55	2755.38
468.01	2764.36
468.48	2791.97
468.94	2766.36
469.40	2709.15
469.87	2791.64
470.33	2777.00
470.79	2730.44
471.26	2730.77
471.72	2722.12
472.18	2729.11
472.65	2739.42
473.11	2853.17
473.57	2747.73
474.04	2702.17
474.50	2745.07
474.96	2694.52
475.43	2781.99
475.89	2740.75
476.35	2783.65
476.82	2744.08
477.28	2758.04
477.74	2842.19
478.21	2774.67
478.67	2818.24
479.13	2715.14
479.59	2867.13
480.06	2801.95
480.52	2767.36
480.98	2734.76
481.45	2751.06
481.91	2766.69
482.37	2694.85
482.84	2740.75
483.30	2670.57
483.76	2753.39
484.22	2844.19
484.69	2763.70
485.15	2749.73
485.61	2691.53
486.07	2739.42
486.54	2680.55
487.00	2777.33
487.46	2682.55
487.92	2701.50
488.39	2742.75
488.85	2748.07
489.31	2735.76
489.77	2811.26
490.24	2688.20
490.70	2755.38
491.16	2693.86
491.62	2702.50
492.09	2657.27
492.55	2813.92
493.01	2778.67
493.47	2739.75
493.94	2733.10
494.40	2732.10
494.86	2709.82
495.32	2718.80
495.78	2763.37
496.25	2721.13
496.71	2740.08
497.17	2877.11
497.63	2813.25
498.09	2717.47
498.56	2759.71
499.02	2721.13
499.48	2898.40
499.94	2750.73
500.40	2722.46
500.87	2749.73
501.33	2740.42
501.79	2803.28
502.25	2754.05
502.71	3047.07
503.17	2745.41
503.64	2764.70
504.10	2718.80
504.56	2766.36
505.02	2764.03
505.48	2688.87
505.94	2745.41
506.40	2792.63
506.87	2745.74
507.33	2773.01
507.79	2772.35
508.25	2723.46
508.71	2703.17
509.17	2677.89
509.63	2726.12
510.10	2756.05
510.56	2719.46
511.02	2820.90
511.48	2832.54
511.94	2707.16
512.40	2670.24
512.86	2708.49
513.32	2781.33
513.78	2657.94
514.25	2807.60
514.71	3545.00
515.17	2657.94
515.63	2758.71
516.09	2821.57
516.55	2766.03
517.01	2918.02
517.47	2776.00
517.93	2748.07
518.39	2996.85
518.85	2735.76
519.32	2717.14
519.78	2689.53
520.24	2708.49
520.70	2788.98
521.16	2780.99
521.62	2791.97
522.08	2758.38
522.54	2689.20
523.00	2870.46
523.46	2795.29
523.92	2738.75
524.38	2890.08
524.84	2781.66
525.30	2819.91
525.76	2816.25
526.22	2771.68
526.68	2754.05
527.14	2753.72
527.60	2739.09
528.06	2786.98
528.52	2778.33
528.98	2713.15
529.44	2706.49
529.90	2797.62
530.36	2789.64
530.82	2704.17
531.28	2812.92
531.74	2749.06
532.20	2758.04
532.66	2748.73
533.12	2772.68
533.58	2726.45
534.04	2686.21
534.50	2750.06
534.96	2724.79
535.42	2762.37
535.88	2709.82
536.34	2779.33
536.80	2701.17
537.26	2786.65
537.72	2755.38
538.18	2746.74
538.64	2862.48
539.10	2777.33
539.56	3123.24
540.02	2693.86
540.48	2850.17
540.94	2743.41
541.40	2699.51
541.86	2778.00
542.32	2763.37
542.78	2726.78
543.24	2917.02
543.69	2686.21
544.15	2883.10
544.61	2802.28
545.07	2732.44
545.53	2725.78
545.99	2805.61
546.45	2742.41
546.91	2777.33
547.37	2781.33
547.83	2769.35
548.29	2736.76
548.74	2740.08
549.20	2706.49
549.66	2888.75
550.12	2740.08
550.58	2696.85
551.04	2789.97
551.50	2752.72
551.96	2862.48
552.42	2767.69
552.87	2720.13
553.33	2772.68
553.79	2732.10
554.25	2704.50
554.71	2765.36
555.17	2753.06
555.63	2868.13
556.08	2762.04
556.54	2836.20
557.00	2673.23
557.46	2770.02
557.92	2874.45
558.38	2723.46
558.83	2744.41
559.29	2704.50
559.75	2704.17
560.21	2704.83
560.67	2768.69
561.13	2745.41
561.58	2747.40
562.04	2727.45
562.50	2706.83
562.96	2744.08
563.42	2815.25
563.87	2707.49
564.33	2752.06
564.79	2731.10
565.25	2750.73
565.71	2764.36
566.16	2817.25
566.62	2739.42
567.08	2705.83
567.54	2761.37
568.00	2808.27
568.45	2733.43
568.91	2746.07
569.37	2780.99
569.83	2763.37
570.28	2759.71
570.74	2792.97
571.20	2803.28
571.66	2750.73
572.11	2781.33
572.57	2782.32
573.03	2704.83
573.49	2722.12
573.94	2774.01
574.40	2836.20
574.86	2807.27
575.32	2693.86
575.77	2763.37
576.23	2658.27
576.69	2809.93
577.15	2749.06
577.60	2715.14
578.06	2696.18
578.52	2830.22
578.97	2766.03
579.43	2716.14
579.89	2770.02
580.34	2761.70
580.80	2744.08
581.26	2751.73
581.72	2759.04
582.17	2745.41
582.63	2697.18
583.09	2751.39
583.54	2770.02
584.00	2738.09
584.46	2776.34
584.91	2719.46
585.37	2908.71
585.83	2729.77
586.28	2742.41
586.74	2757.71
587.20	2740.42
587.65	2792.30
588.11	2690.53
588.57	2793.96
589.02	2752.39
589.48	2732.77
589.94	2763.37
590.39	2803.94
590.85	2721.79
591.30	2687.87
591.76	2824.23
592.22	2733.77
592.67	2774.67
593.13	2760.04
593.59	2795.29
594.04	2740.75
594.50	2735.10
594.95	2824.56
595.41	2733.77
595.87	2712.15
596.32	2842.86
596.78	2800.95
597.23	2824.23
597.69	2763.03
598.15	2690.86
598.60	2767.02
599.06	2823.56
599.51	2724.79
599.97	2796.63
600.43	2834.54
600.88	2790.97
601.34	2790.64
601.79	2691.86
602.25	2926.34
602.70	2717.14
603.16	2750.73
603.61	2699.84
604.07	2687.87
604.53	2788.31
604.98	2731.77
605.44	2785.65
605.89	2770.02
606.35	2686.87
606.80	2755.38
607.26	2738.42
607.71	2752.06
608.17	2781.66
608.62	2761.37
609.08	2896.40
609.53	2787.31
609.99	2759.04
610.44	2716.14
610.90	2757.05
611.35	2703.17
611.81	2858.49
612.26	2790.64
612.72	2751.39
613.17	2965.25
613.63	2690.86
614.08	2684.88
614.54	2703.17
614.99	2688.87
615.45	2739.75
615.90	2761.04
616.36	2713.48
616.81	2746.07
617.27	2742.41
617.72	2801.28
618.18	2701.17
618.63	2740.75
619.09	2748.40
619.54	2789.64
619.99	2734.43
620.45	2788.98
620.90	2810.93
621.36	2739.42
621.81	2814.92
622.27	2843.19
622.72	2806.27
623.18	2713.81
623.63	2707.16
624.08	2807.27
624.54	2687.54
624.99	2740.08
625.45	2760.71
625.90	2709.49
626.35	2752.06
626.81	2766.69
627.26	2711.48
627.72	2791.30
628.17	2791.30
628.62	2674.23
629.08	2743.74
629.53	2751.39
629.99	2702.50
630.44	2773.34
630.89	2731.44
631.35	2798.62
631.80	2788.98
632.26	2812.26
632.71	2711.48
633.16	2735.10
633.62	2696.85
634.07	2742.41
634.52	2692.86
634.98	2736.76
635.43	2722.46
635.88	2693.86
636.34	2743.74
636.79	2732.44
637.24	2716.47
637.70	2787.98
638.15	2809.26
638.60	2720.79
639.06	2737.09
639.51	2696.18
639.96	2670.24
640.42	2759.04
640.87	2826.23
641.32	2689.86
641.78	2738.42
642.23	2722.79
642.68	2676.56
643.14	2727.78
643.59	2775.67
644.04	2710.15
644.49	2693.52
644.95	2723.46
645.40	2699.84
645.85	2752.39
646.31	2744.74
646.76	2769.69
647.21	2799.62
647.66	2762.70
648.12	2770.35
648.57	2693.19
649.02	2814.25
649.47	2774.01
649.93	3017.14
650.38	2702.17
650.83	2709.82
651.28	2719.13
651.74	2756.71
652.19	2698.51
652.64	2737.09
653.09	2709.82
653.55	2698.84
654.00	2751.06
654.45	2757.71
654.90	2737.76
655.35	2711.48
655.81	2806.60
656.26	2695.19
656.71	2745.07
657.16	2769.35
657.62	2796.29
658.07	2710.15
658.52	2733.43
658.97	2703.83
659.42	3059.04
659.88	2724.45
660.33	2823.90
660.78	2729.44
661.23	2696.52
661.68	2735.43
662.13	2701.50
662.59	2654.94
663.04	2762.37
663.49	2730.77
663.94	2709.49
664.39	2735.10
664.84	2709.15
665.30	2755.38
665.75	2689.20
666.20	2771.68
666.65	2761.70
667.10	2932.32
667.55	2816.58
668.00	2700.17
668.46	2771.02
668.91	2689.53
669.36	2891.08
669.81	2675.23
670.26	2699.84
670.71	2817.25
671.16	2762.04
671.61	2830.55
672.06	2934.65
672.52	2746.74
672.97	2759.37
673.42	2835.21
673.87	2967.58
674.32	2775.34
674.77	2778.33
675.22	2675.56
675.67	2688.20
676.12	2750.40
676.57	2733.43
677.02	2730.77
677.47	2729.11
677.93	2914.70
678.38	2709.49
678.83	2742.41
679.28	2752.72
679.73	2707.16
680.18	2731.44
680.63	2736.43
681.08	2644.30
681.53	2661.59
681.98	2714.48
682.43	2743.74
682.88	2769.02
683.33	2772.68
683.78	2744.08
684.23	2815.58
684.68	2772.01
685.13	2750.06
685.58	2749.40
686.03	2737.76
686.48	2707.49
686.93	2739.75
687.38	2716.14
687.83	2756.05
688.28	2725.12
688.73	2933.32
689.18	2790.97
689.63	2656.27
690.08	2727.78
690.53	2718.80
690.98	2676.56
691.43	2742.75
691.88	2666.92
692.33	2751.39
692.78	2743.74
693.23	2786.31
693.68	2771.68
694.13	2745.41
694.58	2750.73
695.03	3063.70
695.48	2765.03
695.93	2754.05
696.38	2866.47
696.83	2746.40
697.28	2717.47
697.72	2767.69
698.17	2698.51
698.62	2791.97
699.07	2786.31
699.52	2711.48
699.97	2728.11
700.42	2794.96
700.87	2789.64
701.32	3026.12
701.77	2680.22
702.22	2840.53
702.67	2699.84
703.11	2724.45
703.56	2757.05
704.01	2733.10
704.46	2717.47
704.91	2824.56
705.36	2789.97
705.81	2796.96
706.26	2681.55
706.70	2782.99
707.15	2733.77
707.60	2726.12
708.05	2766.03
708.50	2788.64
708.95	2743.74
709.40	2717.14
709.84	2753.06
710.29	2758.04
710.74	2718.13
711.19	2766.69
711.64	2755.05
712.09	2746.07
712.53	2686.21
712.98	2881.77
713.43	2743.41
713.88	2745.74
714.33	2830.22
714.78	2796.96
715.22	2722.12
715.67	2762.37
716.12	2718.47
716.57	2728.11
717.02	2688.87
717.46	2699.51
717.91	2775.01
718.36	2845.85
718.81	2691.53
719.26	2699.51
719.70	2752.72
720.15	2726.45
720.60	2689.86
721.05	2768.02
721.49	2710.15
721.94	2767.36
722.39	2731.10
722.84	2679.89
723.28	2671.90
723.73	2725.45
724.18	2684.54
724.63	2769.02
725.07	2669.58
725.52	2737.42
725.97	2729.11
726.42	2739.09
726.86	2856.16
727.31	2696.18
727.76	2824.56
728.21	2770.68
728.65	2727.45
729.10	2821.24
729.55	2704.83
729.99	2782.32
730.44	2673.57
730.89	2754.39
731.33	2756.05
731.78	2772.68
732.23	2756.05
732.68	2712.15
733.12	2785.98
733.57	2769.35
734.02	2695.85
734.46	2787.98
734.91	2764.36
735.36	2758.71
735.80	2945.29
736.25	2713.81
736.70	2763.70
737.14	2792.97
737.59	2775.01
738.04	2745.07
738.48	2720.46
738.93	2754.72
739.37	2697.18
739.82	2809.26
740.27	2782.66
740.71	2718.80
741.16	2789.31
741.61	2781.99
742.05	2733.43
742.50	2755.72
742.94	2702.17
743.39	2709.82
743.84	2742.08
744.28	2803.61
744.73	2790.64
745.18	2759.04
745.62	2800.95
746.07	2831.55
746.51	2654.61
746.96	2690.86
747.40	2676.23
747.85	2755.72
748.30	2721.46
748.74	2717.80
749.19	2759.71
749.63	2953.28
750.08	2746.40
750.52	2708.16
750.97	2669.91
751.42	2723.79
751.86	2715.81
752.31	2722.79
752.75	2888.42
753.20	2706.83
753.64	2719.46
754.09	2673.23
754.53	2724.79
754.98	2676.23
755.42	2734.76
755.87	2733.10
756.31	2814.92
756.76	2721.46
757.20	2834.21
757.65	2739.75
758.09	2724.79
758.54	2735.43
758.98	2718.80
759.43	2684.21
759.87	2734.10
760.32	2747.07
760.76	2734.43
761.21	2758.71
761.65	2824.56
762.10	2707.16
762.54	2678.22
762.99	2723.79
763.43	2778.67
763.88	2726.45
764.32	2689.86
764.77	2700.17
765.21	2771.35
765.66	2681.22
766.10	2672.90
766.54	2714.81
766.99	2738.09
767.43	2742.08
767.88	2772.35
768.32	2774.34
768.77	2736.09
769.21	2860.48
769.66	2694.52
770.10	2739.42
770.54	2702.83
770.99	2669.58
771.43	2782.99
771.88	2742.41
772.32	2776.00
772.76	2668.25
773.21	2713.81
773.65	2740.42
774.10	2644.96
774.54	2740.75
774.98	2695.85
775.43	2746.07
775.87	2745.41
776.31	2672.24
776.76	2725.12
777.20	2727.78
777.65	2765.03
778.09	2780.00
778.53	2716.14
778.98	2737.42
779.42	2938.64
779.86	2818.58
780.31	2747.07
780.75	2803.94
781.19	2767.02
781.64	2701.17
782.08	2749.06
782.52	2689.86
782.97	2738.09
783.41	2783.65
783.85	2788.31
784.30	2718.80
784.74	2712.48
785.18	2722.79
785.63	2692.19
786.07	2771.68
786.51	2807.60
786.95	2808.60
787.40	2694.52
787.84	2721.13
788.28	2750.73
788.73	2906.71
789.17	2721.13
789.61	2723.79
790.05	2724.12
790.50	2687.20
790.94	2692.19
791.38	2803.28
791.82	2723.46
792.27	2740.42
792.71	2712.81
793.15	3045.74
793.59	2799.62
794.04	2740.42
794.48	2758.71
794.92	2741.75
795.36	2690.53
795.81	2764.70
796.25	2742.08
796.69	2748.73
797.13	2709.49
797.57	2686.54
798.02	2746.07
798.46	2787.65
798.90	2758.71
799.34	2707.49
799.79	2837.87
800.23	2755.38
800.67	2693.19
801.11	2765.36
801.55	2741.42
801.99	2705.50
802.44	2793.30
802.88	2847.51
803.32	2794.63
803.76	2755.38
804.20	2735.43
804.64	2714.81
805.09	2859.15
805.53	2887.42
805.97	2845.85
806.41	2765.03
806.85	2878.44
807.29	2716.14
807.74	2745.41
808.18	2697.18
808.62	2756.38
809.06	2727.78
809.50	2700.51
809.94	2685.54
810.38	2765.36
810.82	2849.17
811.27	2977.89
811.71	2731.44
812.15	2707.49
812.59	2769.02
813.03	2876.45
813.47	2785.98
813.91	2745.41
814.35	2795.96
814.79	2772.35
815.23	2751.73
815.67	2695.52
816.12	2713.81
816.56	2721.79
817.00	2785.65
817.44	2733.10
817.88	2814.25
818.32	2709.82
818.76	2762.70
819.20	2819.24
819.64	2719.80
820.08	2757.38
820.52	2721.13
820.96	2762.70
821.40	2707.16
821.84	2831.21
822.28	2699.18
822.72	2750.06
823.16	2762.70
823.60	2693.52
824.04	2769.02
824.48	2752.72
824.92	2761.37
825.36	2767.36
825.80	2704.17
826.24	2734.76
826.68	2645.63
827.12	2730.11
827.56	2786.65
828.00	2814.59
828.44	2700.84
828.88	2791.64
829.32	2773.01
829.76	2712.15
830.20	2829.22
830.64	2734.43
831.08	2898.40
831.52	2812.59
831.96	2782.99
832.40	2706.16
832.84	2744.74
833.28	2730.77
833.72	2827.56
834.16	2786.98
834.60	2726.78
835.04	2710.82
835.48	2810.26
835.91	2750.40
836.35	2745.07
836.79	2738.09
837.23	2790.97
837.67	2698.51
838.11	2699.51
838.55	2768.35
838.99	2750.40
839.43	2835.54
839.87	2895.41
840.30	2741.75
840.74	2829.22
841.18	2665.92
841.62	2715.81
842.06	2709.15
842.50	2727.11
842.94	2777.67
843.38	2745.07
843.81	2786.98
844.25	2747.73
844.69	2703.83
845.13	2775.34
845.57	2726.78
846.01	2784.65
846.45	2727.45
846.88	2697.85
847.32	2738.42
847.76	2721.46
848.20	2726.45
848.64	2750.06
849.08	2768.35
849.51	2826.89
849.95	2788.31
850.39	2729.44
850.83	2804.27
851.27	2697.51
851.70	2753.39
852.14	2805.94
852.58	2710.15
853.02	2714.81
853.46	2786.65
853.89	2667.58
854.33	2791.97
854.77	2684.21
855.21	2688.87
855.65	2812.59
856.08	2839.20
856.52	2738.09
856.96	2761.37
857.40	2749.06
857.83	2682.55
858.27	2807.27
858.71	2669.91
859.15	2701.50
859.58	2719.46
860.02	2720.13
860.46	2740.75
860.89	2797.29
861.33	2720.46
861.77	2735.43
862.21	2769.02
862.64	2717.80
863.08	2722.79
863.52	2775.67
863.95	2692.52
864.39	2741.08
864.83	2724.79
865.27	2674.23
865.70	2741.08
866.14	2671.57
866.58	2773.68
867.01	2680.88
867.45	2750.40
867.89	2731.44
868.32	2726.45
868.76	2756.71
869.20	2739.42
869.63	2830.88
870.07	2934.65
870.51	2684.54
870.94	2735.43
871.38	2749.06
871.82	2699.18
872.25	2757.71
872.69	2771.68
873.13	2723.79
873.56	2803.94
874.00	2790.31
874.43	2720.79
874.87	2685.21
875.31	2813.59
875.74	2651.95
876.18	2757.38
876.61	2727.78
877.05	2747.07
877.49	2735.43
877.92	2732.77
878.36	2764.70
878.79	2728.78
879.23	2852.83
879.67	2697.85
880.10	2684.88
880.54	2706.16
880.97	2746.74
881.41	2776.34
881.84	2722.46
882.28	2719.80
882.72	2717.14
883.15	2737.42
883.59	2692.52
884.02	2782.99
884.46	2744.08
884.89	2778.33
885.33	2800.95
885.76	2722.79
886.20	2691.86
886.63	2837.53
887.07	2687.87
887.50	2679.89
887.94	2725.45
888.37	2716.80
888.81	2966.91
889.24	2685.54
889.68	2795.29
890.11	2701.84
890.55	2775.01
890.98	2757.71
891.42	2670.57
891.85	2690.53
892.29	2726.12
892.72	2688.53
893.16	2707.16
893.59	2744.41
894.03	2715.47
894.46	2767.69
894.90	2704.83
895.33	2681.22
895.77	2749.40
896.20	2752.39
896.63	2697.51
897.07	2694.85
897.50	2681.55
897.94	2735.10
898.37	2799.62
898.81	2695.52
899.24	2697.18
899.68	2705.83
900.11	2782.99
900.54	2759.04
900.98	2708.49
901.41	2855.16
901.85	2864.47
902.28	2704.83
902.71	2715.47
903.15	2857.16
903.58	2709.15
904.02	2749.73
904.45	2716.14
904.88	2716.14
905.32	2678.56
905.75	2817.25
906.18	2742.41
906.62	2796.96
907.05	2744.41
907.48	2725.78
907.92	2765.03
908.35	2837.20
908.79	2719.13
909.22	2677.56
909.65	2750.06
910.09	2763.03
910.52	2721.46
910.95	2702.50
911.38	2718.47
911.82	2743.41
912.25	2706.83
912.68	2742.75
913.12	2757.38
913.55	2731.44
913.98	2666.92
914.42	2679.89
914.85	2712.81
915.28	2702.17
915.72	2772.01
916.15	2724.45
916.58	2797.96
917.01	2722.12
917.45	2786.65
917.88	2700.17
918.31	2720.13
918.74	2730.77
919.18	2757.71
919.61	2774.01
920.04	2738.42
920.47	2831.88
920.91	2778.33
921.34	2713.81
921.77	2677.23
922.20	2676.23
922.64	2742.75
923.07	2834.54
923.50	2756.38
923.93	2677.56
924.37	2772.01
924.80	2688.53
925.23	2770.02
925.66	2865.47
926.09	2714.14
926.53	2776.34
926.96	2664.25
927.39	2863.48
927.82	2740.42
928.25	2672.90
928.69	2775.67
929.12	2700.17
929.55	2765.69
929.98	2770.02
930.41	2691.86
930.84	2737.76
931.28	2661.26
931.71	2842.52
932.14	2786.31
932.57	2898.73
933.00	2734.43
933.43	2787.31
933.86	2782.99
934.30	2767.69
934.73	2736.43
935.16	2674.23
935.59	2718.13
936.02	2691.86
936.45	2727.45
936.88	2680.22
937.31	2748.73
937.75	2702.17
938.18	2723.79
938.61	2747.07
939.04	2684.54
939.47	2733.77
939.90	2792.30
940.33	2878.44
940.76	2701.84
941.19	2783.99
941.62	2697.18
942.05	2699.84
942.48	2781.66
942.91	2677.23
943.35	2656.61
943.78	2761.37
944.21	2763.70
944.64	2748.73
945.07	2730.44
945.50	2737.09
945.93	2739.42
946.36	2798.29
946.79	2730.77
947.22	2736.76
947.65	2743.74
948.08	2667.58
948.51	2674.23
948.94	2683.88
949.37	2908.04
949.80	2808.60
950.23	2730.44
950.66	2728.11
951.09	2741.75
951.52	2668.58
951.95	2778.67
952.38	2721.13
952.81	2861.81
953.24	2669.58
953.67	2698.18
954.10	2709.49
954.53	2697.85
954.96	2721.13
955.39	2768.35
955.82	2676.89
956.25	2777.33
956.68	2941.64
957.11	2668.25
957.53	2744.08
957.96	2741.75
958.39	2698.18
958.82	2681.55
959.25	2704.50
959.68	2634.32
960.11	2727.78
960.54	2765.03
960.97	2747.40
961.40	2794.63
961.83	2770.35
962.26	2696.18
962.68	2759.04
963.11	2717.80
963.54	2740.75
963.97	2726.45
964.40	2691.86
964.83	2780.99
965.26	2702.83
965.69	2727.78
966.11	2763.70
966.54	2668.58
966.97	2691.53
967.40	2806.94
967.83	3028.11
968.26	2780.33
968.69	2717.14
969.11	2761.37
969.54	2680.88
969.97	2715.81
970.40	2762.04
970.83	2714.81
971.26	2733.10
971.68	2677.23
972.11	2685.54
972.54	2715.14
972.97	2757.38
973.40	2708.49
973.82	2779.00
974.25	2728.11
974.68	2690.53
975.11	2689.53
975.54	2682.21
975.96	2743.41
976.39	2673.57
976.82	2779.33
977.25	2735.43
977.67	2724.12
978.10	2725.12
978.53	2718.80
978.96	2758.71
979.38	2756.05
979.81	2707.49
980.24	2762.37
980.67	2793.30
981.09	2733.77
981.52	2707.16
981.95	2703.50
982.38	2721.13
982.80	2713.15
983.23	2785.65
983.66	2777.33
984.08	2679.22
984.51	2652.28
984.94	2726.45
985.37	2765.69
985.79	2716.80
986.22	2682.88
986.65	2750.40
987.07	2729.44
987.50	2728.44
987.93	2728.44
988.35	2750.06
988.78	2719.13
989.21	2716.14
989.63	2768.02
990.06	2737.09
990.49	2750.73
990.91	2827.89
991.34	2736.76
991.77	2700.51
992.19	2733.10
992.62	2709.49
993.05	2711.81
993.47	2765.03
993.90	2772.35
994.32	2745.07
994.75	2720.46
995.18	2674.56
995.60	2683.21
996.03	2652.28
996.45	2800.62
996.88	2780.00
997.31	2709.49
997.73	2737.76
998.16	2686.54
998.58	2830.22
999.01	2723.12
999.44	2747.73
999.86	2812.59
1000.29	2696.18
1000.71	2752.06
1001.14	2784.65
1001.56	2726.45
1001.99	2741.08
1002.41	2717.80
1002.84	2766.03
1003.27	2686.21
1003.69	2747.73
1004.12	2741.42
1004.54	2800.62
1004.97	2718.47
1005.39	2672.90
1005.82	2757.05
1006.24	2721.13
1006.67	2686.21
1007.09	2657.94
1007.52	2718.80
1007.94	2703.83
1008.37	2979.88
1008.79	2797.62
1009.22	2776.67
1009.64	2756.71
1010.07	2761.37
1010.49	2782.32
1010.92	2716.47
1011.34	2770.68
1011.77	2728.78
1012.19	2737.09
1012.62	2750.73
1013.04	2684.88
1013.46	2810.93
1013.89	2657.60
1014.31	2788.64
1014.74	2709.15
1015.16	2732.44
1015.59	2693.19
1016.01	2752.39
1016.44	2716.14
1016.86	3755.23
1017.28	2708.49
1017.71	2661.59
1018.13	2918.02
1018.56	2808.60
1018.98	2773.68
1019.40	2720.46
1019.83	2722.79
1020.25	2751.39
1020.68	2760.04
1021.10	2752.72
1021.52	2713.81
1021.95	2955.94
1022.37	2798.62
1022.79	2775.01
1023.22	2772.01
1023.64	2743.74
1024.07	2751.73
1024.49	2763.37
1024.91	2690.53
1025.34	2693.86
1025.76	2871.46
1026.18	2771.02
1026.61	2755.38
1027.03	2744.41
1027.45	2738.75
1027.88	2718.47
1028.30	2882.43
1028.72	2743.41
1029.15	2738.75
1029.57	2758.71
1029.99	2824.90
1030.41	2664.25
1030.84	2758.04
1031.26	2770.68
1031.68	2707.49
1032.11	2801.95
1032.53	2690.53
1032.95	2712.15
1033.37	2748.73
1033.80	2794.96
1034.22	2719.13
1034.64	2857.16
1035.06	2699.84
1035.49	2706.16
1035.91	2738.09
1036.33	2672.24
1036.75	2780.33
1037.18	2778.33
1037.60	2782.66
1038.02	2801.61
1038.44	2831.21
1038.87	2710.15
1039.29	2724.45
1039.71	2757.71
1040.13	2724.79
1040.55	2817.25
1040.98	2801.95
1041.40	2772.01
1041.82	2798.29
1042.24	2730.44
1042.66	2774.01
1043.09	2680.55
1043.51	2739.75
1043.93	2711.15
1044.35	2684.21
1044.77	2747.07
1045.20	2766.69
1045.62	2702.17
1046.04	2748.40
1046.46	2782.99
1046.88	2679.22
1047.30	2804.27
1047.72	2788.31
1048.15	2780.00
1048.57	2707.49
1048.99	2717.80
1049.41	2764.36
1049.83	2778.00
1050.25	2857.16
1050.67	2809.26
1051.09	2721.46
1051.52	2761.37
1051.94	2640.31
1052.36	2730.11
1052.78	2654.61
1053.20	2734.43
1053.62	2708.16
1054.04	2742.08
1054.46	2760.37
1054.88	2863.48
1055.30	2804.94
1055.72	2805.94
1056.14	2746.07
1056.57	3004.50
1056.99	2688.53
1057.41	2769.35
1057.83	2781.66
1058.25	2713.15
1058.67	2723.79
1059.09	2707.16
1059.51	2789.64
1059.93	2743.41
1060.35	2709.15
1060.77	2784.32
1061.19	2837.87
1061.61	2739.09
1062.03	2739.42
1062.45	2709.82
1062.87	2780.00
1063.29	2805.27
1063.71	2729.11
1064.13	2702.17
1064.55	2668.91
1064.97	2779.66
1065.39	2734.10
1065.81	2745.07
1066.23	2753.06
1066.65	2735.43
1067.07	2851.84
1067.49	2745.41
1067.91	2711.15
1068.33	2679.55
1068.75	2781.99
1069.17	2796.29
1069.59	2805.27
1070.00	2717.80
1070.42	2765.36
1070.84	2702.17
1071.26	2697.51
1071.68	2678.56
1072.10	2747.40
1072.52	2737.76
1072.94	2678.56
1073.36	2704.83
1073.78	2707.82
1074.20	2734.10
1074.62	2704.17
1075.03	2696.18
1075.45	2718.80
1075.87	2785.98
1076.29	2695.52
1076.71	2782.66
1077.13	2846.18
1077.55	2651.28
1077.97	2737.76
1078.38	2718.47
1078.80	2731.77
1079.22	2767.02
1079.64	2733.10
1080.06	2709.49
1080.48	2766.03
1080.89	2722.46
1081.31	2731.77
1081.73	2730.77
1082.15	2732.44
1082.57	2803.28
1082.99	2744.41
1083.40	2704.50
1083.82	2819.24
1084.24	2683.54
1084.66	2704.83
1085.08	2762.04
1085.49	2646.30
1085.91	2764.03
1086.33	4657.24
1086.75	2740.75
1087.17	2683.54
1087.58	2714.81
1088.00	2711.48
1088.42	2791.64
1088.84	2727.45
1089.25	2682.55
1089.67	2734.76
1090.09	2711.15
1090.51	2704.50
1090.92	2771.02
1091.34	2692.52
1091.76	2726.45
1092.18	2717.80
1092.59	2746.07
1093.01	2711.48
1093.43	2741.08
1093.84	2689.53
1094.26	2725.78
1094.68	2755.72
1095.10	2686.87
1095.51	2730.44
1095.93	2694.85
1096.35	2768.35
1096.76	2750.40
1097.18	2787.98
1097.60	2723.12
1098.01	2708.82
1098.43	2694.19
1098.85	2720.46
1099.26	2713.81
1099.68	2718.13
1100.10	2670.24
1100.51	2680.22
1100.93	2731.44
1101.35	2731.44
1101.76	2727.78
1102.18	3112.26
1102.60	2804.61
1103.01	2616.36
1103.43	2731.77
1103.84	2725.12
1104.26	2693.19
1104.68	2719.46
1105.09	2626.01
1105.51	2642.30
1105.92	2773.01
1106.34	2643.97
1106.76	2744.74
1107.17	2734.43
1107.59	2742.41
1108.00	2628.67
1108.42	2697.51
1108.83	2631.00
1109.25	2682.21
1109.67	2636.98
1110.08	2653.61
1110.50	2640.97
1110.91	2692.19
1111.33	2658.93
1111.74	2644.96
1112.16	2689.86
1112.57	2709.82
1112.99	2670.57
1113.41	2673.23
1113.82	2662.26
1114.24	2692.19
1114.65	2671.90
1115.07	2657.94
1115.48	2668.91
1115.90	2146.76
1116.31	2159.73
1116.73	2157.40
1117.14	2156.74
>>>>>End Processed Spectral Data<<<<<
