Date	8/6/2019
Spectrometer	MAYP114590
Lamp SN	F-1401-2
Int. Time(usec)	800000
Average	0
Boxcar	0
Fiber (micron)	 10000 
	
[uJoule/count]
198.79877	0.0000000E+00
199.26883	0.0000000E+00
199.73886	0.0000000E+00
200.20888	0.0000000E+00
200.67887	0.0000000E+00
201.14884	1.4336515E-01
201.61878	1.1183472E-01
202.08870	8.8753157E-02
202.55860	7.5199797E-02
203.02848	6.4128368E-02
203.49833	5.6082480E-02
203.96816	4.7408208E-02
204.43797	4.1489562E-02
204.90776	3.9055126E-02
205.37752	3.6417819E-02
205.84726	3.4341802E-02
206.31698	3.2496584E-02
206.78667	3.0345069E-02
207.25634	2.8566858E-02
207.72599	2.7041408E-02
208.19562	2.5574752E-02
208.66522	2.4003410E-02
209.13480	2.3049351E-02
209.60436	2.2009348E-02
210.07389	2.0873835E-02
210.54340	2.0116987E-02
211.01289	1.9136132E-02
211.48236	1.8079504E-02
211.95180	1.7252001E-02
212.42122	1.6494315E-02
212.89061	1.5625421E-02
213.35999	1.4901081E-02
213.82934	1.4373429E-02
214.29867	1.3671612E-02
214.76797	1.3062538E-02
215.23725	1.2578666E-02
215.70651	1.2127851E-02
216.17575	1.1702255E-02
216.64496	1.1272158E-02
217.11415	1.0836000E-02
217.58332	1.0408016E-02
218.05247	1.0105671E-02
218.52159	9.8039150E-03
218.99069	9.4427765E-03
219.45976	9.1509513E-03
219.92881	8.9213012E-03
220.39784	8.5544484E-03
220.86685	8.2671412E-03
221.33583	7.9712047E-03
221.80480	7.7063899E-03
222.27373	7.4389123E-03
222.74265	7.2295932E-03
223.21154	6.9899238E-03
223.68041	6.7476629E-03
224.14925	6.5637418E-03
224.61808	6.3724957E-03
225.08688	6.2044648E-03
225.55565	6.0408004E-03
226.02440	5.8424126E-03
226.49314	5.6631430E-03
226.96184	5.4799040E-03
227.43053	5.3485840E-03
227.89919	5.2149304E-03
228.36783	5.0685010E-03
228.83644	4.9294524E-03
229.30503	4.7785174E-03
229.77360	4.6667248E-03
230.24215	4.5292075E-03
230.71067	4.4098586E-03
231.17917	4.3003608E-03
231.64765	4.2011400E-03
232.11610	4.1154330E-03
232.58453	4.0251437E-03
233.05294	3.9358429E-03
233.52132	3.8418900E-03
233.98968	3.7512929E-03
234.45802	3.6858401E-03
234.92633	3.6002973E-03
235.39462	3.5295044E-03
235.86289	3.4562595E-03
236.33114	3.3853647E-03
236.79936	3.3114595E-03
237.26756	3.2343313E-03
237.73573	3.1623908E-03
238.20388	3.1040601E-03
238.67201	3.0550204E-03
239.14012	3.0091438E-03
239.60820	2.9484034E-03
240.07626	2.9001981E-03
240.54430	2.8535248E-03
241.01231	2.8052959E-03
241.48030	2.7739764E-03
241.94827	2.7405404E-03
242.41621	2.7049409E-03
242.88413	2.6736069E-03
243.35203	2.6364581E-03
243.81990	2.6014589E-03
244.28775	2.5657979E-03
244.75558	2.5356409E-03
245.22338	2.5081699E-03
245.69116	2.4767306E-03
246.15892	2.4472081E-03
246.62665	2.4144370E-03
247.09436	2.3884772E-03
247.56205	2.3608947E-03
248.02971	2.3335963E-03
248.49735	2.3078558E-03
248.96497	2.2864737E-03
249.43256	2.2694250E-03
249.90014	2.2513858E-03
250.36768	2.2282095E-03
250.83521	2.2030877E-03
251.30271	2.1866548E-03
251.77018	2.1680475E-03
252.23764	2.1440134E-03
252.70507	2.1234629E-03
253.17248	2.1050724E-03
253.63986	2.0865629E-03
254.10722	2.0720064E-03
254.57456	2.0495191E-03
255.04187	2.0336783E-03
255.50916	2.0259183E-03
255.97643	2.0171697E-03
256.44367	1.9977123E-03
256.91089	1.9794114E-03
257.37809	1.9686317E-03
257.84526	1.9522851E-03
258.31241	1.9398901E-03
258.77954	1.9275163E-03
259.24664	1.9086226E-03
259.71372	1.8976126E-03
260.18078	1.8782661E-03
260.64781	1.8617201E-03
261.11482	1.8492748E-03
261.58181	1.8344133E-03
262.04877	1.8232232E-03
262.51571	1.8117179E-03
262.98262	1.8056502E-03
263.44951	1.7960944E-03
263.91638	1.7890672E-03
264.38323	1.7798745E-03
264.85005	1.7657703E-03
265.31685	1.7575478E-03
265.78362	1.7525165E-03
266.25037	1.7433738E-03
266.71710	1.7348790E-03
267.18380	1.7283523E-03
267.65048	1.7195058E-03
268.11714	1.7087920E-03
268.58377	1.6956896E-03
269.05038	1.6904634E-03
269.51697	1.6812595E-03
269.98353	1.6728353E-03
270.45007	1.6609188E-03
270.91659	1.6474820E-03
271.38308	1.6431557E-03
271.84955	1.6430321E-03
272.31599	1.6281052E-03
272.78241	1.6097316E-03
273.24881	1.5894487E-03
273.71518	1.5771973E-03
274.18154	1.5625060E-03
274.64786	1.5522511E-03
275.11417	1.5391841E-03
275.58044	1.5268983E-03
276.04670	1.5148643E-03
276.51293	1.5032436E-03
276.97914	1.4937366E-03
277.44533	1.4783527E-03
277.91149	1.4606821E-03
278.37763	1.4497801E-03
278.84374	1.4383409E-03
279.30983	1.4226711E-03
279.77590	1.4048061E-03
280.24194	1.3922260E-03
280.70796	1.3799530E-03
281.17396	1.3654671E-03
281.63993	1.3525341E-03
282.10588	1.3377947E-03
282.57180	1.3215552E-03
283.03770	1.3038396E-03
283.50358	1.2927544E-03
283.96943	1.2798115E-03
284.43526	1.2630240E-03
284.90107	1.2489457E-03
285.36685	1.2372201E-03
285.83261	1.2269929E-03
286.29834	1.2138028E-03
286.76405	1.1999860E-03
287.22974	1.1878592E-03
287.69541	1.1730455E-03
288.16105	1.1627559E-03
288.62666	1.1457133E-03
289.09225	1.1349819E-03
289.55782	1.1259700E-03
290.02337	1.1152218E-03
290.48889	1.0996068E-03
290.95439	1.0856783E-03
291.41986	1.0749476E-03
291.88531	1.0665811E-03
292.35073	1.0533287E-03
292.81614	1.0440076E-03
293.28151	1.0319111E-03
293.74687	1.0224095E-03
294.21220	1.0086274E-03
294.67751	9.9735897E-04
295.14279	9.8750950E-04
295.60805	9.7900245E-04
296.07328	9.7101723E-04
296.53849	9.6012770E-04
297.00368	9.4787052E-04
297.46884	9.4152038E-04
297.93398	9.3244034E-04
298.39910	9.2404389E-04
298.86419	9.1552327E-04
299.32926	9.0830973E-04
299.79430	9.0189575E-04
300.25932	8.9439486E-04
300.72432	8.8970616E-04
301.18929	8.8273377E-04
301.65424	8.7799474E-04
302.11916	8.7267815E-04
302.58406	8.6368317E-04
303.04894	8.5702536E-04
303.51379	8.5013656E-04
303.97862	8.4394878E-04
304.44343	8.4129791E-04
304.90821	8.3807459E-04
305.37297	8.3161993E-04
305.83770	8.2361600E-04
306.30241	8.2005932E-04
306.76709	8.1632573E-04
307.23175	8.1159698E-04
307.69639	8.0556986E-04
308.16100	7.9962590E-04
308.62559	7.9810333E-04
309.09016	7.9398760E-04
309.55470	7.8677267E-04
310.01921	7.8051428E-04
310.48371	7.7747090E-04
310.94818	7.7433077E-04
311.41262	7.6981441E-04
311.87704	7.6647021E-04
312.34144	7.6049329E-04
312.80581	7.5539810E-04
313.27016	7.4918018E-04
313.73448	7.4329603E-04
314.19879	7.3697566E-04
314.66306	7.3294758E-04
315.12731	7.2775127E-04
315.59154	7.2371750E-04
316.05575	7.1929562E-04
316.51993	7.1516990E-04
316.98408	7.1200842E-04
317.44822	7.0847168E-04
317.91232	7.0512724E-04
318.37641	7.0250564E-04
318.84047	6.9755118E-04
319.30450	6.9466823E-04
319.76851	6.8966173E-04
320.23250	6.8746147E-04
320.69646	6.8418543E-04
321.16040	6.7955049E-04
321.62432	6.7519413E-04
322.08821	6.6935051E-04
322.55207	6.6682342E-04
323.01592	6.6450633E-04
323.47974	6.6174455E-04
323.94353	6.5902110E-04
324.40730	6.5712433E-04
324.87104	6.5473990E-04
325.33477	6.4886311E-04
325.79846	6.4514226E-04
326.26214	6.4217014E-04
326.72579	6.3922082E-04
327.18941	6.3693685E-04
327.65301	6.3463985E-04
328.11659	6.3075284E-04
328.58014	6.2692804E-04
329.04367	6.2359845E-04
329.50717	6.2070064E-04
329.97065	6.1739360E-04
330.43410	6.1328482E-04
330.89753	6.1019467E-04
331.36094	6.0858890E-04
331.82432	6.0647868E-04
332.28768	6.0279881E-04
332.75102	5.9836073E-04
333.21432	5.9490864E-04
333.67761	5.9324018E-04
334.14087	5.9033337E-04
334.60411	5.8612187E-04
335.06732	5.8240285E-04
335.53051	5.8041138E-04
335.99367	5.7732390E-04
336.45681	5.7587830E-04
336.91993	5.7426350E-04
337.38302	5.7095177E-04
337.84608	5.6591336E-04
338.30912	5.6341897E-04
338.77214	5.6168441E-04
339.23513	5.5961760E-04
339.69810	5.5620017E-04
340.16105	5.5539186E-04
340.62397	5.5581964E-04
341.08686	5.5674805E-04
341.54974	5.5951269E-04
342.01258	5.6231485E-04
342.47541	5.6252349E-04
342.93820	5.6113755E-04
343.40098	5.5895108E-04
343.86373	5.5626486E-04
344.32645	5.5086324E-04
344.78915	5.4447197E-04
345.25183	5.3719332E-04
345.71448	5.2953002E-04
346.17711	5.2118133E-04
346.63971	5.1318363E-04
347.10229	5.0562581E-04
347.56484	4.9807635E-04
348.02737	4.9391098E-04
348.48988	4.8971930E-04
348.95236	4.8616516E-04
349.41481	4.8408290E-04
349.87725	4.8179368E-04
350.33965	4.8018110E-04
350.80204	4.7832652E-04
351.26439	4.7804759E-04
351.72673	4.7748112E-04
352.18904	4.7784193E-04
352.65132	4.7863094E-04
353.11358	4.7730469E-04
353.57582	4.7636091E-04
354.03803	4.7496308E-04
354.50022	4.7414958E-04
354.96238	4.7434553E-04
355.42451	4.7244009E-04
355.88663	4.7131150E-04
356.34872	4.6808398E-04
356.81078	4.6606755E-04
357.27282	4.6530053E-04
357.73483	4.6461683E-04
358.19682	4.6276648E-04
358.65879	4.6067600E-04
359.12073	4.5940766E-04
359.58265	4.5784748E-04
360.04454	4.5683567E-04
360.50641	4.5466893E-04
360.96825	4.5266069E-04
361.43007	4.5170548E-04
361.89186	4.5127107E-04
362.35363	4.4942260E-04
362.81537	4.4698615E-04
363.27709	4.4601281E-04
363.73879	4.4433365E-04
364.20046	4.4350389E-04
364.66210	4.4306709E-04
365.12373	4.4121428E-04
365.58532	4.3955025E-04
366.04689	4.3727631E-04
366.50844	4.3565661E-04
366.96996	4.3234891E-04
367.43146	4.3123689E-04
367.89293	4.3203126E-04
368.35438	4.3073737E-04
368.81581	4.2797871E-04
369.27720	4.2597227E-04
369.73858	4.2564723E-04
370.19993	4.2409603E-04
370.66125	4.2214005E-04
371.12255	4.2048609E-04
371.58383	4.1932429E-04
372.04508	4.1845378E-04
372.50630	4.1642456E-04
372.96751	4.1380137E-04
373.42868	4.1114203E-04
373.88983	4.0836191E-04
374.35096	4.0504086E-04
374.81206	4.0049814E-04
375.27314	3.9765535E-04
375.73419	3.9542824E-04
376.19522	3.9313098E-04
376.65622	3.9032858E-04
377.11720	3.8750417E-04
377.57816	3.8497530E-04
378.03908	3.8191954E-04
378.49999	3.7960091E-04
378.96087	3.7736683E-04
379.42172	3.7514358E-04
379.88255	3.7275680E-04
380.34335	3.7011254E-04
380.80413	3.6782982E-04
381.26489	3.6560856E-04
381.72562	3.6354334E-04
382.18632	3.6131626E-04
382.64700	3.5910893E-04
383.10766	3.5692026E-04
383.56829	3.5460360E-04
384.02890	3.5221223E-04
384.48948	3.5003601E-04
384.95003	3.4760890E-04
385.41056	3.4575126E-04
385.87107	3.4343488E-04
386.33155	3.4120528E-04
386.79201	3.3874527E-04
387.25244	3.3682042E-04
387.71285	3.3485153E-04
388.17323	3.3262176E-04
388.63358	3.3060597E-04
389.09392	3.2886138E-04
389.55422	3.2652664E-04
390.01451	3.2479004E-04
390.47476	3.2297254E-04
390.93499	3.2120475E-04
391.39520	3.1970352E-04
391.85538	3.1806579E-04
392.31554	3.1604237E-04
392.77567	3.1404656E-04
393.23578	3.1247827E-04
393.69586	3.1058273E-04
394.15592	3.0858340E-04
394.61595	3.0704880E-04
395.07596	3.0520696E-04
395.53594	3.0372086E-04
395.99590	3.0228351E-04
396.45583	3.0057801E-04
396.91574	2.9926967E-04
397.37562	2.9796267E-04
397.83548	2.9676813E-04
398.29531	2.9513996E-04
398.75512	2.9371563E-04
399.21490	2.9233265E-04
399.67465	2.9074725E-04
400.13439	2.8924479E-04
400.59409	2.8783363E-04
401.05377	2.8669157E-04
401.51343	2.8529882E-04
401.97306	2.8385171E-04
402.43267	2.8246245E-04
402.89225	2.8097314E-04
403.35181	2.7963605E-04
403.81134	2.7846161E-04
404.27084	2.7709063E-04
404.73033	2.7585240E-04
405.18978	2.7480477E-04
405.64921	2.7369708E-04
406.10862	2.7222560E-04
406.56800	2.7100925E-04
407.02735	2.6975806E-04
407.48668	2.6863604E-04
407.94599	2.6739640E-04
408.40527	2.6610468E-04
408.86452	2.6480056E-04
409.32375	2.6360265E-04
409.78296	2.6233063E-04
410.24214	2.6099268E-04
410.70129	2.5993488E-04
411.16042	2.5896443E-04
411.61952	2.5798178E-04
412.07860	2.5687770E-04
412.53766	2.5595379E-04
412.99668	2.5494259E-04
413.45569	2.5402415E-04
413.91466	2.5308917E-04
414.37362	2.5215394E-04
414.83254	2.5115284E-04
415.29145	2.5039087E-04
415.75032	2.4941058E-04
416.20917	2.4845947E-04
416.66800	2.4731961E-04
417.12680	2.4642432E-04
417.58558	2.4540916E-04
418.04433	2.4431254E-04
418.50305	2.4341689E-04
418.96175	2.4239436E-04
419.42043	2.4140172E-04
419.87908	2.4047206E-04
420.33770	2.3941541E-04
420.79630	2.3848610E-04
421.25487	2.3764573E-04
421.71342	2.3697818E-04
422.17194	2.3605566E-04
422.63044	2.3509680E-04
423.08891	2.3436868E-04
423.54736	2.3338898E-04
424.00578	2.3243348E-04
424.46418	2.3141792E-04
424.92255	2.3053434E-04
425.38089	2.2973208E-04
425.83921	2.2879021E-04
426.29751	2.2785140E-04
426.75578	2.2693360E-04
427.21402	2.2605491E-04
427.67224	2.2516664E-04
428.13043	2.2423928E-04
428.58860	2.2340738E-04
429.04674	2.2257693E-04
429.50486	2.2180940E-04
429.96295	2.2085356E-04
430.42102	2.2000662E-04
430.87906	2.1922628E-04
431.33707	2.1844554E-04
431.79506	2.1757892E-04
432.25303	2.1682007E-04
432.71097	2.1611450E-04
433.16888	2.1537088E-04
433.62677	2.1460524E-04
434.08463	2.1380418E-04
434.54247	2.1299670E-04
435.00028	2.1228590E-04
435.45807	2.1161042E-04
435.91583	2.1083815E-04
436.37356	2.1010373E-04
436.83127	2.0943681E-04
437.28896	2.0869529E-04
437.74662	2.0792748E-04
438.20425	2.0719296E-04
438.66186	2.0640320E-04
439.11944	2.0570508E-04
439.57700	2.0500784E-04
440.03453	2.0426375E-04
440.49204	2.0353956E-04
440.94952	2.0299617E-04
441.40697	2.0238587E-04
441.86440	2.0171891E-04
442.32180	2.0099950E-04
442.77918	2.0040928E-04
443.23653	1.9976108E-04
443.69386	1.9915379E-04
444.15116	1.9854875E-04
444.60844	1.9790646E-04
445.06569	1.9726677E-04
445.52291	1.9665265E-04
445.98011	1.9603913E-04
446.43729	1.9543383E-04
446.89443	1.9477740E-04
447.35156	1.9424788E-04
447.80865	1.9360128E-04
448.26572	1.9299422E-04
448.72277	1.9241163E-04
449.17979	1.9181861E-04
449.63678	1.9127193E-04
450.09375	1.9067133E-04
450.55069	1.9013474E-04
451.00761	1.8951166E-04
451.46450	1.8898159E-04
451.92137	1.8853519E-04
452.37821	1.8795633E-04
452.83502	1.8740032E-04
453.29181	1.8683643E-04
453.74858	1.8625407E-04
454.20531	1.8575874E-04
454.66203	1.8516537E-04
455.11871	1.8473775E-04
455.57537	1.8427493E-04
456.03201	1.8378470E-04
456.48862	1.8326565E-04
456.94520	1.8272582E-04
457.40176	1.8221446E-04
457.85829	1.8168683E-04
458.31479	1.8113683E-04
458.77127	1.8063646E-04
459.22773	1.8007555E-04
459.68416	1.7957573E-04
460.14056	1.7898661E-04
460.59694	1.7848876E-04
461.05329	1.7801981E-04
461.50962	1.7748082E-04
461.96592	1.7692006E-04
462.42219	1.7636436E-04
462.87844	1.7580689E-04
463.33466	1.7531716E-04
463.79086	1.7473624E-04
464.24703	1.7420431E-04
464.70317	1.7366093E-04
465.15929	1.7311096E-04
465.61539	1.7255733E-04
466.07145	1.7205720E-04
466.52750	1.7153005E-04
466.98351	1.7108530E-04
467.43950	1.7066564E-04
467.89547	1.7023978E-04
468.35141	1.6976597E-04
468.80732	1.6937120E-04
469.26320	1.6893041E-04
469.71907	1.6848402E-04
470.17490	1.6807042E-04
470.63071	1.6769424E-04
471.08649	1.6725402E-04
471.54225	1.6687372E-04
471.99798	1.6645787E-04
472.45369	1.6602910E-04
472.90937	1.6554006E-04
473.36502	1.6518044E-04
473.82065	1.6470031E-04
474.27625	1.6427995E-04
474.73183	1.6389476E-04
475.18738	1.6354031E-04
475.64290	1.6317382E-04
476.09840	1.6281263E-04
476.55387	1.6243396E-04
477.00932	1.6206112E-04
477.46474	1.6168639E-04
477.92013	1.6140395E-04
478.37550	1.6100699E-04
478.83084	1.6073228E-04
479.28616	1.6038891E-04
479.74145	1.6004431E-04
480.19671	1.5971918E-04
480.65195	1.5937977E-04
481.10716	1.5902695E-04
481.56235	1.5870419E-04
482.01751	1.5833023E-04
482.47264	1.5799385E-04
482.92775	1.5768066E-04
483.38284	1.5738777E-04
483.83789	1.5704617E-04
484.29292	1.5673806E-04
484.74793	1.5639452E-04
485.20290	1.5601760E-04
485.65786	1.5567483E-04
486.11278	1.5531077E-04
486.56768	1.5494875E-04
487.02256	1.5459347E-04
487.47740	1.5426651E-04
487.93223	1.5385779E-04
488.38702	1.5347285E-04
488.84179	1.5310569E-04
489.29653	1.5273776E-04
489.75125	1.5236860E-04
490.20594	1.5204902E-04
490.66061	1.5169677E-04
491.11525	1.5137168E-04
491.56986	1.5107063E-04
492.02445	1.5076983E-04
492.47901	1.5044211E-04
492.93354	1.5014782E-04
493.38805	1.4984033E-04
493.84253	1.4952888E-04
494.29699	1.4925147E-04
494.75142	1.4899056E-04
495.20582	1.4869774E-04
495.66020	1.4842419E-04
496.11455	1.4817187E-04
496.56887	1.4791336E-04
497.02317	1.4769299E-04
497.47745	1.4744029E-04
497.93169	1.4721818E-04
498.38591	1.4698022E-04
498.84011	1.4677619E-04
499.29427	1.4650054E-04
499.74842	1.4622089E-04
500.20253	1.4594744E-04
500.65662	1.4571316E-04
501.11068	1.4544602E-04
501.56472	1.4517517E-04
502.01873	1.4489685E-04
502.47271	1.4460904E-04
502.92667	1.4430589E-04
503.38060	1.4401383E-04
503.83451	1.4366524E-04
504.28839	1.4335391E-04
504.74224	1.4305710E-04
505.19607	1.4275514E-04
505.64987	1.4242570E-04
506.10364	1.4209930E-04
506.55739	1.4176692E-04
507.01111	1.4140874E-04
507.46480	1.4110094E-04
507.91847	1.4075182E-04
508.37212	1.4041628E-04
508.82573	1.4006947E-04
509.27932	1.3970807E-04
509.73288	1.3935109E-04
510.18642	1.3901308E-04
510.63993	1.3869746E-04
511.09342	1.3837693E-04
511.54687	1.3804036E-04
512.00031	1.3777674E-04
512.45371	1.3741728E-04
512.90709	1.3711748E-04
513.36044	1.3681739E-04
513.81377	1.3649094E-04
514.26707	1.3619735E-04
514.72034	1.3587897E-04
515.17359	1.3556394E-04
515.62681	1.3523401E-04
516.08000	1.3496772E-04
516.53317	1.3467828E-04
516.98631	1.3433151E-04
517.43942	1.3408839E-04
517.89251	1.3382883E-04
518.34558	1.3356865E-04
518.79861	1.3334046E-04
519.25162	1.3309801E-04
519.70460	1.3286622E-04
520.15756	1.3264219E-04
520.61049	1.3241158E-04
521.06339	1.3214108E-04
521.51627	1.3191995E-04
521.96912	1.3172053E-04
522.42194	1.3149119E-04
522.87474	1.3123513E-04
523.32751	1.3096483E-04
523.78025	1.3070964E-04
524.23297	1.3044952E-04
524.68566	1.3020825E-04
525.13832	1.2995945E-04
525.59096	1.2973856E-04
526.04357	1.2952606E-04
526.49616	1.2929078E-04
526.94872	1.2904849E-04
527.40125	1.2879959E-04
527.85375	1.2859575E-04
528.30623	1.2837822E-04
528.75869	1.2816695E-04
529.21111	1.2797013E-04
529.66351	1.2775362E-04
530.11588	1.2756608E-04
530.56823	1.2738018E-04
531.02055	1.2720649E-04
531.47284	1.2704623E-04
531.92511	1.2687195E-04
532.37735	1.2669072E-04
532.82956	1.2647129E-04
533.28174	1.2626095E-04
533.73390	1.2607828E-04
534.18604	1.2587154E-04
534.63814	1.2570709E-04
535.09022	1.2551454E-04
535.54228	1.2529598E-04
535.99430	1.2506297E-04
536.44630	1.2481640E-04
536.89827	1.2460639E-04
537.35022	1.2444706E-04
537.80214	1.2430979E-04
538.25403	1.2418656E-04
538.70590	1.2406669E-04
539.15774	1.2396286E-04
539.60955	1.2383846E-04
540.06134	1.2373973E-04
540.51310	1.2363958E-04
540.96483	1.2351865E-04
541.41654	1.2338918E-04
541.86822	1.2320455E-04
542.31987	1.2299097E-04
542.77149	1.2277908E-04
543.22309	1.2256474E-04
543.67467	1.2232232E-04
544.12621	1.2207805E-04
544.57773	1.2180850E-04
545.02922	1.2152907E-04
545.48069	1.2126964E-04
545.93213	1.2104010E-04
546.38354	1.2084271E-04
546.83492	1.2066660E-04
547.28628	1.2048261E-04
547.73761	1.2029333E-04
548.18892	1.2009315E-04
548.64020	1.1991926E-04
549.09145	1.1974652E-04
549.54267	1.1960615E-04
549.99387	1.1947410E-04
550.44504	1.1934158E-04
550.89618	1.1920481E-04
551.34730	1.1912084E-04
551.79839	1.1910616E-04
552.24945	1.1914354E-04
552.70049	1.1921080E-04
553.15150	1.1924467E-04
553.60248	1.1917588E-04
554.05344	1.1904231E-04
554.50437	1.1885420E-04
554.95527	1.1863532E-04
555.40615	1.1844688E-04
555.85699	1.1827084E-04
556.30781	1.1803451E-04
556.75861	1.1774800E-04
557.20938	1.1742339E-04
557.66012	1.1708207E-04
558.11083	1.1680803E-04
558.56152	1.1661827E-04
559.01218	1.1648931E-04
559.46281	1.1642297E-04
559.91342	1.1637500E-04
560.36400	1.1627959E-04
560.81455	1.1619136E-04
561.26507	1.1609936E-04
561.71557	1.1598181E-04
562.16604	1.1587811E-04
562.61649	1.1576344E-04
563.06691	1.1562943E-04
563.51730	1.1547387E-04
563.96766	1.1534237E-04
564.41800	1.1519601E-04
564.86831	1.1504068E-04
565.31859	1.1490353E-04
565.76884	1.1476881E-04
566.21907	1.1462593E-04
566.66927	1.1448998E-04
567.11945	1.1434766E-04
567.56960	1.1421941E-04
568.01972	1.1408724E-04
568.46981	1.1397078E-04
568.91988	1.1381051E-04
569.36991	1.1364409E-04
569.81993	1.1351961E-04
570.26991	1.1338939E-04
570.71987	1.1325666E-04
571.16980	1.1314140E-04
571.61970	1.1302818E-04
572.06958	1.1290235E-04
572.51943	1.1275829E-04
572.96925	1.1264066E-04
573.41905	1.1252393E-04
573.86882	1.1243067E-04
574.31856	1.1234768E-04
574.76827	1.1223895E-04
575.21796	1.1213634E-04
575.66762	1.1201290E-04
576.11725	1.1191107E-04
576.56686	1.1180261E-04
577.01644	1.1169720E-04
577.46599	1.1160803E-04
577.91551	1.1150459E-04
578.36501	1.1139101E-04
578.81448	1.1126356E-04
579.26392	1.1114172E-04
579.71334	1.1100879E-04
580.16273	1.1088592E-04
580.61209	1.1078165E-04
581.06142	1.1066256E-04
581.51073	1.1055388E-04
581.96001	1.1045918E-04
582.40926	1.1036111E-04
582.85849	1.1025843E-04
583.30769	1.1018633E-04
583.75686	1.1010830E-04
584.20600	1.1002794E-04
584.65512	1.0995662E-04
585.10421	1.0987191E-04
585.55327	1.0979846E-04
586.00230	1.0971770E-04
586.45131	1.0964527E-04
586.90029	1.0956167E-04
587.34924	1.0949072E-04
587.79817	1.0942244E-04
588.24707	1.0933769E-04
588.69594	1.0925047E-04
589.14478	1.0917875E-04
589.59360	1.0911186E-04
590.04239	1.0905374E-04
590.49115	1.0899214E-04
590.93988	1.0894927E-04
591.38859	1.0889973E-04
591.83727	1.0885977E-04
592.28592	1.0881529E-04
592.73455	1.0875795E-04
593.18315	1.0869661E-04
593.63172	1.0865819E-04
594.08026	1.0860925E-04
594.52878	1.0854847E-04
594.97727	1.0849735E-04
595.42573	1.0841313E-04
595.87416	1.0832407E-04
596.32257	1.0821886E-04
596.77095	1.0811117E-04
597.21930	1.0799989E-04
597.66762	1.0790358E-04
598.11592	1.0783096E-04
598.56419	1.0774033E-04
599.01243	1.0764400E-04
599.46065	1.0755333E-04
599.90884	1.0744845E-04
600.35700	1.0734875E-04
600.80513	1.0723231E-04
601.25323	1.0715309E-04
601.70131	1.0707140E-04
602.14936	1.0696984E-04
602.59738	1.0686362E-04
603.04538	1.0673701E-04
603.49335	1.0661146E-04
603.94129	1.0648400E-04
604.38920	1.0637354E-04
604.83709	1.0623368E-04
605.28494	1.0610020E-04
605.73278	1.0599857E-04
606.18058	1.0586086E-04
606.62835	1.0572832E-04
607.07610	1.0562794E-04
607.52382	1.0553721E-04
607.97152	1.0545025E-04
608.41918	1.0536814E-04
608.86682	1.0531803E-04
609.31443	1.0524318E-04
609.76201	1.0519905E-04
610.20957	1.0516440E-04
610.65710	1.0493201E-04
611.10460	1.0488640E-04
611.55207	1.0483527E-04
611.99951	1.0476783E-04
612.44693	1.0470227E-04
612.89432	1.0462844E-04
613.34169	1.0456275E-04
613.78902	1.0449169E-04
614.23633	1.0444592E-04
614.68361	1.0439847E-04
615.13086	1.0435679E-04
615.57808	1.0448543E-04
616.02528	1.0444761E-04
616.47245	1.0439271E-04
616.91959	1.0434135E-04
617.36671	1.0429054E-04
617.81379	1.0425327E-04
618.26085	1.0421525E-04
618.70788	1.0416741E-04
619.15489	1.0410379E-04
619.60186	1.0405687E-04
620.04881	1.0399179E-04
620.49573	1.0393085E-04
620.94263	1.0388067E-04
621.38949	1.0385515E-04
621.83633	1.0383321E-04
622.28314	1.0380808E-04
622.72992	1.0376305E-04
623.17668	1.0371423E-04
623.62340	1.0367234E-04
624.07010	1.0363014E-04
624.51677	1.0356781E-04
624.96342	1.0350893E-04
625.41003	1.0343530E-04
625.85662	1.0335241E-04
626.30318	1.0327719E-04
626.74972	1.0318839E-04
627.19622	1.0307999E-04
627.64270	1.0297834E-04
628.08915	1.0287087E-04
628.53557	1.0273815E-04
628.98196	1.0260021E-04
629.42833	1.0245619E-04
629.87467	1.0232604E-04
630.32098	1.0220663E-04
630.76726	1.0209861E-04
631.21352	1.0198600E-04
631.65975	1.0190444E-04
632.10595	1.0183875E-04
632.55212	1.0176499E-04
632.99826	1.0169810E-04
633.44438	1.0165237E-04
633.89047	1.0160800E-04
634.33653	1.0156752E-04
634.78256	1.0151809E-04
635.22857	1.0147304E-04
635.67454	1.0140449E-04
636.12049	1.0134207E-04
636.56641	1.0127202E-04
637.01231	1.0120234E-04
637.45817	1.0115191E-04
637.90401	1.0110304E-04
638.34982	1.0105593E-04
638.79560	1.0101951E-04
639.24136	1.0098440E-04
639.68708	1.0096511E-04
640.13278	1.0094086E-04
640.57845	1.0094196E-04
641.02410	1.0095685E-04
641.46971	1.0099803E-04
641.91530	1.0107519E-04
642.36086	1.0115510E-04
642.80639	1.0127440E-04
643.25189	1.0147456E-04
643.69736	1.0176144E-04
644.14281	1.0207957E-04
644.58823	1.0235618E-04
645.03362	1.0255020E-04
645.47899	1.0261296E-04
645.92432	1.0257535E-04
646.36963	1.0249015E-04
646.81491	1.0236789E-04
647.26016	1.0225771E-04
647.70538	1.0212357E-04
648.15058	1.0190792E-04
648.59575	1.0161268E-04
649.04089	1.0130360E-04
649.48600	1.0103167E-04
649.93108	1.0084587E-04
650.37614	1.0077478E-04
650.82116	1.0075316E-04
651.26616	1.0075137E-04
651.71113	1.0075093E-04
652.15608	1.0074172E-04
652.60099	1.0073485E-04
653.04588	1.0073495E-04
653.49074	1.0076722E-04
653.93557	1.0076834E-04
654.38037	1.0076625E-04
654.82515	1.0075193E-04
655.26990	1.0072961E-04
655.71461	1.0073713E-04
656.15931	1.0072623E-04
656.60397	1.0072750E-04
657.04860	1.0073084E-04
657.49321	1.0072484E-04
657.93779	1.0069761E-04
658.38234	1.0064491E-04
658.82686	1.0060472E-04
659.27135	1.0058933E-04
659.71582	1.0058909E-04
660.16026	1.0059502E-04
660.60467	1.0058175E-04
661.04905	1.0059583E-04
661.49340	1.0059743E-04
661.93773	1.0059319E-04
662.38202	1.0059253E-04
662.82629	1.0058161E-04
663.27053	1.0058223E-04
663.71475	1.0058761E-04
664.15893	1.0059315E-04
664.60309	1.0059980E-04
665.04721	1.0060948E-04
665.49131	1.0062901E-04
665.93539	1.0064747E-04
666.37943	1.0064089E-04
666.82344	1.0062659E-04
667.26743	1.0061068E-04
667.71139	1.0063688E-04
668.15532	1.0066714E-04
668.59922	1.0072057E-04
669.04310	1.0074880E-04
669.48694	1.0076184E-04
669.93076	1.0074281E-04
670.37455	1.0072216E-04
670.81831	1.0067863E-04
671.26204	1.0068654E-04
671.70575	1.0072412E-04
672.14942	1.0078251E-04
672.59307	1.0081043E-04
673.03669	1.0081582E-04
673.48028	1.0080315E-04
673.92384	1.0078747E-04
674.36738	1.0077056E-04
674.81088	1.0077824E-04
675.25436	1.0077958E-04
675.69781	1.0082932E-04
676.14123	1.0087869E-04
676.58463	1.0090673E-04
677.02799	1.0090448E-04
677.47133	1.0092206E-04
677.91464	1.0092848E-04
678.35792	1.0093099E-04
678.80117	1.0092443E-04
679.24439	1.0095707E-04
679.68758	1.0101361E-04
680.13075	1.0109026E-04
680.57389	1.0112966E-04
681.01700	1.0114449E-04
681.46008	1.0114477E-04
681.90313	1.0113604E-04
682.34616	1.0111960E-04
682.78915	1.0112129E-04
683.23212	1.0113663E-04
683.67506	1.0119103E-04
684.11797	1.0123942E-04
684.56085	1.0127554E-04
685.00370	1.0130437E-04
685.44653	1.0130756E-04
685.88933	1.0130521E-04
686.33210	1.0133552E-04
686.77483	1.0142028E-04
687.21755	1.0153857E-04
687.66023	1.0166735E-04
688.10288	1.0183235E-04
688.54551	1.0199239E-04
688.98811	1.0214004E-04
689.43068	1.0228222E-04
689.87322	1.0241846E-04
690.31573	1.0253412E-04
690.75821	1.0262821E-04
691.20067	1.0267091E-04
691.64309	1.0266555E-04
692.08549	1.0261393E-04
692.52786	1.0255354E-04
692.97020	1.0246144E-04
693.41252	1.0235327E-04
693.85480	1.0219487E-04
694.29705	1.0202971E-04
694.73928	1.0187511E-04
695.18148	1.0178515E-04
695.62365	1.0173813E-04
696.06579	1.0174842E-04
696.50790	1.0179066E-04
696.94999	1.0185949E-04
697.39204	1.0188549E-04
697.83407	1.0189433E-04
698.27607	1.0188037E-04
698.71804	1.0190681E-04
699.15998	1.0196625E-04
699.60189	1.0202889E-04
700.04377	1.0208529E-04
700.48563	1.0214869E-04
700.92746	1.0218453E-04
701.36925	1.0220135E-04
701.81102	1.0218988E-04
702.25276	1.0218602E-04
702.69448	1.0217570E-04
703.13616	1.0219615E-04
703.57781	1.0225034E-04
704.01944	1.0230267E-04
704.46104	1.0235924E-04
704.90261	1.0241807E-04
705.34415	1.0246121E-04
705.78566	1.0249254E-04
706.22714	1.0251991E-04
706.66859	1.0256834E-04
707.11002	1.0266930E-04
707.55142	1.0280516E-04
707.99278	1.0295273E-04
708.43412	1.0306240E-04
708.87543	1.0314902E-04
709.31671	1.0321944E-04
709.75797	1.0324411E-04
710.19919	1.0324407E-04
710.64039	1.0322977E-04
711.08155	1.0320562E-04
711.52269	1.0319115E-04
711.96380	1.0318480E-04
712.40488	1.0320898E-04
712.84593	1.0323293E-04
713.28696	1.0330133E-04
713.72795	1.0338808E-04
714.16892	1.0345980E-04
714.60985	1.0353816E-04
715.05076	1.0362308E-04
715.49164	1.0372488E-04
715.93249	1.0387197E-04
716.37331	1.0401296E-04
716.81410	1.0417411E-04
717.25487	1.0433695E-04
717.69560	1.0453352E-04
718.13631	1.0469324E-04
718.57698	1.0485608E-04
719.01763	1.0503751E-04
719.45825	1.0521851E-04
719.89884	1.0539354E-04
720.33940	1.0557167E-04
720.77994	1.0576294E-04
721.22044	1.0598746E-04
721.66092	1.0617992E-04
722.10136	1.0636059E-04
722.54178	1.0648524E-04
722.98217	1.0659894E-04
723.42253	1.0666481E-04
723.86286	1.0672130E-04
724.30316	1.0676887E-04
724.74343	1.0680820E-04
725.18368	1.0687663E-04
725.62389	1.0692810E-04
726.06408	1.0695800E-04
726.50423	1.0700424E-04
726.94436	1.0701895E-04
727.38446	1.0703837E-04
727.82453	1.0706336E-04
728.26457	1.0709124E-04
728.70459	1.0710803E-04
729.14457	1.0711806E-04
729.58452	1.0713362E-04
730.02445	1.0714111E-04
730.46435	1.0712631E-04
730.90421	1.0715192E-04
731.34405	1.0718952E-04
731.78386	1.0722228E-04
732.22364	1.0725794E-04
732.66339	1.0727692E-04
733.10311	1.0730210E-04
733.54281	1.0734117E-04
733.98247	1.0738841E-04
734.42211	1.0745773E-04
734.86171	1.0753280E-04
735.30129	1.0764302E-04
735.74084	1.0774170E-04
736.18036	1.0780326E-04
736.61985	1.0787802E-04
737.05931	1.0795961E-04
737.49874	1.0805163E-04
737.93814	1.0813964E-04
738.37752	1.0819862E-04
738.81686	1.0828053E-04
739.25618	1.0835948E-04
739.69547	1.0842891E-04
740.13472	1.0850236E-04
740.57395	1.0854840E-04
741.01315	1.0857746E-04
741.45232	1.0860526E-04
741.89146	1.0861259E-04
742.33057	1.0862525E-04
742.76966	1.0862733E-04
743.20871	1.0863006E-04
743.64773	1.0861862E-04
744.08673	1.0860222E-04
744.52569	1.0855532E-04
744.96463	1.0845850E-04
745.40354	1.0838645E-04
745.84242	1.0833777E-04
746.28127	1.0823073E-04
746.72009	1.0811871E-04
747.15888	1.0804753E-04
747.59764	1.0805546E-04
748.03637	1.0807856E-04
748.47508	1.0806968E-04
748.91375	1.0803016E-04
749.35240	1.0795603E-04
749.79101	1.0790289E-04
750.22960	1.0780683E-04
750.66816	1.0772487E-04
751.10668	1.0772056E-04
751.54518	1.0774907E-04
751.98365	1.0775137E-04
752.42209	1.0772433E-04
752.86050	1.0769700E-04
753.29889	1.0767422E-04
753.73724	1.0764863E-04
754.17556	1.0763906E-04
754.61386	1.0758443E-04
755.05212	1.0751010E-04
755.49036	1.0741523E-04
755.92856	1.0734110E-04
756.36674	1.0729825E-04
756.80489	1.0726941E-04
757.24300	1.0726907E-04
757.68109	1.0732039E-04
758.11915	1.0740751E-04
758.55718	1.0749066E-04
758.99518	1.0754959E-04
759.43316	1.0761989E-04
759.87110	1.0768429E-04
760.30901	1.0774611E-04
760.74690	1.0776681E-04
761.18475	1.0778905E-04
761.62257	1.0783048E-04
762.06037	1.0787368E-04
762.49814	1.0791959E-04
762.93587	1.0799201E-04
763.37358	1.0809919E-04
763.81126	1.0824201E-04
764.24891	1.0836124E-04
764.68653	1.0848872E-04
765.12412	1.0858955E-04
765.56168	1.0869186E-04
765.99921	1.0875541E-04
766.43671	1.0879674E-04
766.87418	1.0883014E-04
767.31162	1.0888156E-04
767.74904	1.0895496E-04
768.18642	1.0909761E-04
768.62377	1.0925955E-04
769.06110	1.0950030E-04
769.49839	1.0976703E-04
769.93566	1.1003602E-04
770.37290	1.1025911E-04
770.81010	1.1042877E-04
771.24728	1.1057857E-04
771.68443	1.1071660E-04
772.12155	1.1079792E-04
772.55864	1.1084480E-04
772.99570	1.1090934E-04
773.43273	1.1101967E-04
773.86973	1.1110185E-04
774.30670	1.1120764E-04
774.74364	1.1133229E-04
775.18055	1.1147242E-04
775.61743	1.1163417E-04
776.05429	1.1176129E-04
776.49111	1.1185879E-04
776.92790	1.1193787E-04
777.36467	1.1205685E-04
777.80140	1.1214854E-04
778.23811	1.1222942E-04
778.67478	1.1233788E-04
779.11143	1.1246360E-04
779.54804	1.1260388E-04
779.98463	1.1277960E-04
780.42119	1.1295364E-04
780.85772	1.1316138E-04
781.29421	1.1333778E-04
781.73068	1.1352601E-04
782.16712	1.1366955E-04
782.60353	1.1379577E-04
783.03991	1.1393636E-04
783.47626	1.1409412E-04
783.91258	1.1424932E-04
784.34887	1.1442620E-04
784.78513	1.1460275E-04
785.22136	1.1478686E-04
785.65756	1.1498868E-04
786.09374	1.1520495E-04
786.52988	1.1540141E-04
786.96599	1.1559404E-04
787.40207	1.1578164E-04
787.83813	1.1593673E-04
788.27415	1.1608395E-04
788.71014	1.1623929E-04
789.14611	1.1638197E-04
789.58204	1.1652066E-04
790.01795	1.1667481E-04
790.45382	1.1682409E-04
790.88967	1.1700644E-04
791.32548	1.1722184E-04
791.76127	1.1739643E-04
792.19702	1.1755261E-04
792.63275	1.1769605E-04
793.06845	1.1783756E-04
793.50411	1.1796176E-04
793.93975	1.1810953E-04
794.37536	1.1826767E-04
794.81094	1.1847683E-04
795.24648	1.1870058E-04
795.68200	1.1891957E-04
796.11749	1.1915198E-04
796.55295	1.1943225E-04
796.98838	1.1967885E-04
797.42378	1.1991939E-04
797.85914	1.2010073E-04
798.29448	1.2024812E-04
798.72979	1.2035838E-04
799.16507	1.2047212E-04
799.60032	1.2057713E-04
800.03554	1.2068634E-04
800.47073	1.2083758E-04
800.90589	1.2101853E-04
801.34102	1.2122074E-04
801.77612	1.2147462E-04
802.21119	1.2175838E-04
802.64623	1.2208783E-04
803.08125	1.2238490E-04
803.51623	1.2263615E-04
803.95118	1.2284730E-04
804.38610	1.2296995E-04
804.82099	1.2308806E-04
805.25585	1.2321503E-04
805.69068	1.2334319E-04
806.12548	1.2346612E-04
806.56026	1.2360441E-04
806.99500	1.2374711E-04
807.42971	1.2389008E-04
807.86439	1.2409087E-04
808.29904	1.2430226E-04
808.73367	1.2453907E-04
809.16826	1.2480014E-04
809.60282	1.2501506E-04
810.03735	1.2517504E-04
810.47185	1.2529205E-04
810.90633	1.2541656E-04
811.34077	1.2552914E-04
811.77518	1.2567270E-04
812.20956	1.2583652E-04
812.64392	1.2598310E-04
813.07824	1.2617861E-04
813.51253	1.2637817E-04
813.94679	1.2660958E-04
814.38102	1.2686414E-04
814.81523	1.2712519E-04
815.24940	1.2737984E-04
815.68354	1.2760572E-04
816.11765	1.2781015E-04
816.55174	1.2793984E-04
816.98579	1.2801712E-04
817.41981	1.2813166E-04
817.85380	1.2828489E-04
818.28776	1.2847464E-04
818.72170	1.2867221E-04
819.15560	1.2888570E-04
819.58947	1.2911764E-04
820.02331	1.2938901E-04
820.45712	1.2965952E-04
820.89090	1.2995065E-04
821.32466	1.3023969E-04
821.75838	1.3052749E-04
822.19207	1.3074294E-04
822.62573	1.3087860E-04
823.05936	1.3095606E-04
823.49296	1.3097984E-04
823.92653	1.3095809E-04
824.36007	1.3096748E-04
824.79358	1.3099652E-04
825.22706	1.3107756E-04
825.66051	1.3118344E-04
826.09393	1.3133282E-04
826.52732	1.3149702E-04
826.96068	1.3170614E-04
827.39401	1.3192777E-04
827.82731	1.3213616E-04
828.26058	1.3237757E-04
828.69382	1.3263771E-04
829.12703	1.3282737E-04
829.56021	1.3293708E-04
829.99335	1.3296743E-04
830.42647	1.3293447E-04
830.85956	1.3291995E-04
831.29262	1.3294149E-04
831.72565	1.3297271E-04
832.15864	1.3305878E-04
832.59161	1.3320149E-04
833.02455	1.3337376E-04
833.45745	1.3356617E-04
833.89033	1.3379810E-04
834.32317	1.3407191E-04
834.75599	1.3437515E-04
835.18878	1.3465905E-04
835.62153	1.3487698E-04
836.05426	1.3498472E-04
836.48695	1.3503678E-04
836.91961	1.3505658E-04
837.35225	1.3499604E-04
837.78485	1.3490983E-04
838.21743	1.3484405E-04
838.64997	1.3476864E-04
839.08248	1.3471708E-04
839.51496	1.3472044E-04
839.94742	1.3478358E-04
840.37984	1.3488357E-04
840.81223	1.3508954E-04
841.24459	1.3531437E-04
841.67692	1.3552379E-04
842.10922	1.3575884E-04
842.54149	1.3598883E-04
842.97373	1.3616671E-04
843.40594	1.3630622E-04
843.83812	1.3634391E-04
844.27027	1.3626862E-04
844.70239	1.3615450E-04
845.13447	1.3604252E-04
845.56653	1.3591102E-04
845.99856	1.3585173E-04
846.43056	1.3584720E-04
846.86252	1.3592279E-04
847.29446	1.3602255E-04
847.72636	1.3614466E-04
848.15824	1.3628229E-04
848.59008	1.3647391E-04
849.02190	1.3671409E-04
849.45368	1.3694241E-04
849.88543	1.3715647E-04
850.31716	1.3735141E-04
850.74885	1.3745265E-04
851.18051	1.3749324E-04
851.61214	1.3741420E-04
852.04374	1.3729704E-04
852.47531	1.3717376E-04
852.90685	1.3703782E-04
853.33836	1.3692412E-04
853.76984	1.3683349E-04
854.20129	1.3683070E-04
854.63271	1.3686409E-04
855.06409	1.3693565E-04
855.49545	1.3704219E-04
855.92678	1.3717215E-04
856.35807	1.3738701E-04
856.78934	1.3766230E-04
857.22057	1.3796198E-04
857.65178	1.3823976E-04
858.08295	1.3845708E-04
858.51409	1.3870033E-04
858.94521	1.3883713E-04
859.37629	1.3886746E-04
859.80734	1.3882857E-04
860.23836	1.3872538E-04
860.66935	1.3856190E-04
861.10031	1.3831415E-04
861.53124	1.3802471E-04
861.96214	1.3777571E-04
862.39300	1.3760564E-04
862.82384	1.3752541E-04
863.25465	1.3748773E-04
863.68542	1.3752440E-04
864.11617	1.3760179E-04
864.54688	1.3764944E-04
864.97757	1.3775976E-04
865.40822	1.3790610E-04
865.83884	1.3809037E-04
866.26944	1.3825539E-04
866.70000	1.3836976E-04
867.13053	1.3843723E-04
867.56103	1.3843701E-04
867.99150	1.3832776E-04
868.42194	1.3818580E-04
868.85234	1.3809002E-04
869.28272	1.3814937E-04
869.71307	1.3823070E-04
870.14338	1.3836164E-04
870.57367	1.3860104E-04
871.00392	1.3888912E-04
871.43415	1.3918823E-04
871.86434	1.3947985E-04
872.29450	1.3976379E-04
872.72463	1.4012209E-04
873.15474	1.4046475E-04
873.58481	1.4075402E-04
874.01484	1.4093261E-04
874.44485	1.4103557E-04
874.87483	1.4108031E-04
875.30478	1.4105625E-04
875.73469	1.4106866E-04
876.16458	1.4114453E-04
876.59444	1.4128941E-04
877.02426	1.4150946E-04
877.45405	1.4166080E-04
877.88381	1.4182448E-04
878.31355	1.4194272E-04
878.74325	1.4206691E-04
879.17292	1.4220699E-04
879.60256	1.4233928E-04
880.03216	1.4242494E-04
880.46174	1.4238992E-04
880.89129	1.4225622E-04
881.32080	1.4204123E-04
881.75029	1.4175099E-04
882.17974	1.4147619E-04
882.60917	1.4123486E-04
883.03856	1.4104861E-04
883.46792	1.4092680E-04
883.89725	1.4088980E-04
884.32655	1.4090261E-04
884.75582	1.4095036E-04
885.18506	1.4105603E-04
885.61427	1.4114382E-04
886.04344	1.4121807E-04
886.47259	1.4128418E-04
886.90170	1.4134348E-04
887.33078	1.4136254E-04
887.75984	1.4140841E-04
888.18886	1.4140983E-04
888.61785	1.4134430E-04
889.04681	1.4120947E-04
889.47574	1.4104397E-04
889.90464	1.4082409E-04
890.33350	1.4061052E-04
890.76234	1.4043656E-04
891.19114	1.4035732E-04
891.61992	1.4038196E-04
892.04866	1.4052148E-04
892.47737	1.4068820E-04
892.90605	1.4082470E-04
893.33470	1.4094064E-04
893.76332	1.4105050E-04
894.19191	1.4117305E-04
894.62047	1.4132043E-04
895.04899	1.4150178E-04
895.47749	1.4169461E-04
895.90595	1.4186218E-04
896.33439	1.4193003E-04
896.76279	1.4190714E-04
897.19116	1.4181936E-04
897.61950	1.4174699E-04
898.04781	1.4169458E-04
898.47609	1.4170552E-04
898.90433	1.4178891E-04
899.33255	1.4195154E-04
899.76073	1.4216546E-04
900.18889	1.4245056E-04
900.61701	1.4269508E-04
901.04510	1.4290385E-04
901.47316	1.4308083E-04
901.90119	1.4328201E-04
902.32919	1.4349323E-04
902.75715	1.4371143E-04
903.18509	1.4395230E-04
903.61300	1.4412867E-04
904.04087	1.4422295E-04
904.46871	1.4424465E-04
904.89652	1.4421086E-04
905.32430	1.4421883E-04
905.75205	1.4433607E-04
906.17977	1.4452750E-04
906.60746	1.4476058E-04
907.03511	1.4501682E-04
907.46274	1.4531541E-04
907.89033	1.4559481E-04
908.31789	1.4582089E-04
908.74542	1.4604871E-04
909.17292	1.4630890E-04
909.60039	1.4656799E-04
910.02783	1.4682002E-04
910.45523	1.4706861E-04
910.88261	1.4726933E-04
911.30995	1.4743420E-04
911.73727	1.4759364E-04
912.16455	1.4771016E-04
912.59180	1.4773371E-04
913.01902	1.4779474E-04
913.44620	1.4790588E-04
913.87336	1.4804196E-04
914.30048	1.4819086E-04
914.72758	1.4836070E-04
915.15464	1.4853274E-04
915.58167	1.4877317E-04
916.00867	1.4909774E-04
916.43564	1.4946338E-04
916.86258	1.4986690E-04
917.28948	1.5033141E-04
917.71636	1.5082549E-04
918.14320	1.5133962E-04
918.57001	1.5183666E-04
918.99679	1.5235473E-04
919.42354	1.5285860E-04
919.85026	1.5337279E-04
920.27695	1.5385231E-04
920.70361	1.5427193E-04
921.13023	1.5467751E-04
921.55682	1.5509315E-04
921.98338	1.5553163E-04
922.40991	1.5599131E-04
922.83641	1.5644219E-04
923.26288	1.5691934E-04
923.68932	1.5741890E-04
924.11572	1.5797522E-04
924.54209	1.5856301E-04
924.96844	1.5914939E-04
925.39475	1.5980042E-04
925.82103	1.6051121E-04
926.24727	1.6122767E-04
926.67349	1.6197679E-04
927.09968	1.6273896E-04
927.52583	1.6349236E-04
927.95195	1.6422403E-04
928.37804	1.6500371E-04
928.80410	1.6581364E-04
929.23013	1.6665300E-04
929.65612	1.6753830E-04
930.08209	1.6843137E-04
930.50802	1.6929525E-04
930.93393	1.7020687E-04
931.35980	1.7123515E-04
931.78563	1.7245427E-04
932.21144	1.7386163E-04
932.63722	1.7553392E-04
933.06296	1.7738721E-04
933.48868	1.7943325E-04
933.91436	1.8169678E-04
934.34001	1.8424532E-04
934.76563	1.8706272E-04
935.19121	1.9020564E-04
935.61677	1.9368101E-04
936.04229	1.9750822E-04
936.46779	2.0153510E-04
936.89325	2.0581026E-04
937.31868	2.1030186E-04
937.74407	2.1500023E-04
938.16944	2.1981391E-04
938.59477	2.2465950E-04
939.02008	2.2953119E-04
939.44535	2.3428465E-04
939.87059	2.3894133E-04
940.29580	2.4338845E-04
940.72098	2.4750666E-04
941.14612	2.5125599E-04
941.57123	2.5464256E-04
941.99632	2.5766622E-04
942.42137	2.6018490E-04
942.84639	2.6234021E-04
943.27137	2.6399115E-04
943.69633	2.6522347E-04
944.12125	2.6602210E-04
944.54614	2.6625763E-04
944.97101	2.6617663E-04
945.39583	2.6557259E-04
945.82063	2.6464792E-04
946.24540	2.6337018E-04
946.67013	2.6175069E-04
947.09483	2.5992326E-04
947.51951	2.5786409E-04
947.94414	2.5575234E-04
948.36875	2.5346037E-04
948.79333	2.5108920E-04
949.21787	2.4889335E-04
949.64238	2.4664517E-04
950.06686	2.4445627E-04
950.49131	2.4229293E-04
950.91573	2.4013540E-04
951.34012	2.3804547E-04
951.76447	2.3597716E-04
952.18879	2.3401089E-04
952.61308	2.3209617E-04
953.03734	2.3029353E-04
953.46157	2.2872097E-04
953.88576	2.2718069E-04
954.30993	2.2570475E-04
954.73406	2.2430489E-04
955.15816	2.2294461E-04
955.58223	2.2167807E-04
956.00626	2.2034768E-04
956.43027	2.1899216E-04
956.85424	2.1757450E-04
957.27818	2.1619247E-04
957.70209	2.1488777E-04
958.12597	2.1353865E-04
958.54981	2.1237925E-04
958.97363	2.1134555E-04
959.39741	2.1045532E-04
959.82116	2.0970785E-04
960.24488	2.0902492E-04
960.66856	2.0847931E-04
961.09222	2.0810818E-04
961.51584	2.0780735E-04
961.93943	2.0758258E-04
962.36299	2.0736572E-04
962.78652	2.0725488E-04
963.21001	2.0706224E-04
963.63348	2.0685749E-04
964.05691	2.0661194E-04
964.48031	2.0631333E-04
964.90367	2.0603631E-04
965.32701	2.0579370E-04
965.75031	2.0554218E-04
966.17359	2.0533394E-04
966.59683	2.0517845E-04
967.02003	2.0511919E-04
967.44321	2.0517122E-04
967.86636	2.0523200E-04
968.28947	2.0535923E-04
968.71255	2.0555328E-04
969.13560	2.0581457E-04
969.55861	2.0612309E-04
969.98160	2.0641825E-04
970.40455	2.0675637E-04
970.82747	2.0715016E-04
971.25036	2.0757731E-04
971.67322	2.0799203E-04
972.09604	2.0819222E-04
972.51883	2.0836804E-04
972.94160	2.0848555E-04
973.36432	2.0852527E-04
973.78702	2.0862843E-04
974.20969	2.0877000E-04
974.63232	2.0906895E-04
975.05492	2.0946939E-04
975.47749	2.0998740E-04
975.90003	2.1053806E-04
976.32253	2.1109872E-04
976.74500	2.1176982E-04
977.16744	2.1245686E-04
977.58985	2.1319558E-04
978.01223	2.1405076E-04
978.43457	2.1490873E-04
978.85689	2.1581600E-04
979.27917	2.1672864E-04
979.70141	2.1759843E-04
980.12363	2.1836731E-04
980.54581	2.1906356E-04
980.96797	2.1965201E-04
981.39009	2.2022333E-04
981.81217	2.2088372E-04
982.23423	2.2151761E-04
982.65625	2.2220387E-04
983.07824	2.2304918E-04
983.50020	2.2398435E-04
983.92213	2.2498509E-04
984.34403	2.2598253E-04
984.76589	2.2711072E-04
985.18772	2.2829640E-04
985.60952	2.2956783E-04
986.03128	2.3083598E-04
986.45302	2.3203865E-04
986.87472	2.3324162E-04
987.29639	2.3444913E-04
987.71803	2.3549618E-04
988.13963	2.3641563E-04
988.56121	2.3712856E-04
988.98275	2.3776114E-04
989.40426	2.3816281E-04
989.82573	2.3841607E-04
990.24718	2.3858426E-04
990.66859	2.3869929E-04
991.08997	2.3879704E-04
991.51132	2.3891605E-04
991.93264	2.3897910E-04
992.35392	2.3905315E-04
992.77517	2.3917136E-04
993.19639	2.3939329E-04
993.61758	2.3969422E-04
994.03873	2.4009291E-04
994.45985	2.4061654E-04
994.88094	2.4112591E-04
995.30200	2.4165923E-04
995.72303	2.4221046E-04
996.14402	2.4270227E-04
996.56498	2.4309186E-04
996.98591	2.4345138E-04
997.40680	2.4372027E-04
997.82767	2.4385206E-04
998.24850	2.4389795E-04
998.66930	2.4391242E-04
999.09007	2.4382282E-04
999.51080	2.4373958E-04
999.93150	2.4368663E-04
1000.35217	2.4363783E-04
1000.77281	2.4362478E-04
1001.19341	2.4373596E-04
1001.61399	2.4388511E-04
1002.03453	2.4410938E-04
1002.45504	2.4442791E-04
1002.87551	2.4492296E-04
1003.29596	2.4551551E-04
1003.71637	2.4630410E-04
1004.13675	2.4729103E-04
1004.55709	2.4839563E-04
1004.97741	2.4967183E-04
1005.39769	2.5105713E-04
1005.81794	2.5250521E-04
1006.23815	2.5402367E-04
1006.65834	2.5550883E-04
1007.07849	2.5700222E-04
1007.49861	2.5836125E-04
1007.91869	2.5967420E-04
1008.33875	2.6089353E-04
1008.75877	2.6209240E-04
1009.17876	2.6332734E-04
1009.59872	2.6453079E-04
1010.01864	2.6570163E-04
1010.43853	2.6692528E-04
1010.85839	2.6818667E-04
1011.27822	2.6951966E-04
1011.69802	2.7089159E-04
1012.11778	2.7225443E-04
1012.53751	2.7366557E-04
1012.95721	2.7507452E-04
1013.37687	2.7651462E-04
1013.79650	2.7794450E-04
1014.21610	2.7939829E-04
1014.63567	2.8097827E-04
1015.05520	2.8258405E-04
1015.47471	2.8426017E-04
1015.89418	2.8609257E-04
1016.31361	2.8802982E-04
1016.73302	2.9005465E-04
1017.15239	2.9220746E-04
1017.57173	2.9445466E-04
1017.99104	2.9672927E-04
1018.41031	2.9899965E-04
1018.82955	3.0135859E-04
1019.24876	3.0376607E-04
1019.66794	3.0616383E-04
1020.08708	3.0856348E-04
1020.50619	3.1091123E-04
1020.92527	3.1315509E-04
1021.34432	3.1540728E-04
1021.76333	3.1757469E-04
1022.18231	3.1986162E-04
1022.60126	3.2205277E-04
1023.02018	3.2439829E-04
1023.43906	3.2670952E-04
1023.85791	3.2908690E-04
1024.27673	3.3149026E-04
1024.69551	3.3400708E-04
1025.11427	3.3664027E-04
1025.53299	3.3938443E-04
1025.95167	3.4227166E-04
1026.37033	3.4525036E-04
1026.78895	3.4824767E-04
1027.20754	3.5154387E-04
1027.62609	3.5482915E-04
1028.04462	3.5818382E-04
1028.46311	3.6146432E-04
1028.88157	3.6484912E-04
1029.29999	3.6808764E-04
1029.71839	3.7115137E-04
1030.13675	3.7424019E-04
1030.55507	3.7735499E-04
1030.97337	3.8039521E-04
1031.39163	3.8337639E-04
1031.80986	3.8628619E-04
1032.22806	3.8926052E-04
1032.64622	3.9241869E-04
1033.06435	3.9573612E-04
1033.48245	3.9923453E-04
1033.90052	4.0289314E-04
1034.31855	4.0675821E-04
1034.73655	4.1086077E-04
1035.15452	4.1515178E-04
1035.57245	4.1970934E-04
1035.99035	4.2436830E-04
1036.40822	4.2934880E-04
1036.82606	4.3441357E-04
1037.24386	4.3938165E-04
1037.66163	4.4435832E-04
1038.07937	4.4922933E-04
1038.49707	4.5394383E-04
1038.91474	4.5857518E-04
1039.33238	4.6296788E-04
1039.74999	4.6718847E-04
1040.16756	4.7127660E-04
1040.58510	4.7530585E-04
1041.00261	4.7893213E-04
1041.42009	4.8246416E-04
1041.83753	4.8607185E-04
1042.25494	4.8957389E-04
1042.67231	4.9320812E-04
1043.08966	4.9724185E-04
1043.50697	5.0126457E-04
1043.92424	5.0548029E-04
1044.34149	5.0991810E-04
1044.75870	5.1477337E-04
1045.17588	5.2021075E-04
1045.59302	5.2630228E-04
1046.01014	5.3277834E-04
1046.42722	5.3936391E-04
1046.84426	5.4619034E-04
1047.26128	5.5298829E-04
1047.67826	5.5964540E-04
1048.09521	5.6673167E-04
1048.51212	5.7413408E-04
1048.92901	5.8152805E-04
1049.34585	5.8893933E-04
1049.76267	5.9605910E-04
1050.17945	6.0268581E-04
1050.59621	6.0896987E-04
1051.01292	6.1534137E-04
1051.42961	6.2148039E-04
1051.84626	6.2749858E-04
1052.26288	6.3338546E-04
1052.67946	6.3922898E-04
1053.09602	6.4502545E-04
1053.51253	6.5099565E-04
1053.92902	6.5736431E-04
1054.34547	6.6402160E-04
1054.76189	6.7118616E-04
1055.17828	6.7891152E-04
1055.59464	6.8698450E-04
1056.01096	6.9575132E-04
1056.42725	7.0483225E-04
1056.84350	7.1451092E-04
1057.25972	7.2454215E-04
1057.67591	7.3473909E-04
1058.09207	7.4556255E-04
1058.50819	7.5616558E-04
1058.92428	7.6692128E-04
1059.34034	7.7768354E-04
1059.75636	7.8798197E-04
1060.17235	7.9829220E-04
1060.58831	8.0842977E-04
1061.00423	8.1817307E-04
1061.42012	8.2809111E-04
1061.83598	8.3764180E-04
1062.25181	8.4706211E-04
1062.66760	8.5605515E-04
1063.08336	8.6544473E-04
1063.49908	8.7499409E-04
1063.91477	8.8488831E-04
1064.33043	8.9546307E-04
1064.74606	9.0626755E-04
1065.16165	9.1766259E-04
1065.57721	9.3004226E-04
1065.99274	9.4250603E-04
1066.40823	9.5609948E-04
1066.82369	9.7013746E-04
1067.23912	9.8465396E-04
1067.65451	9.9899502E-04
1068.06987	1.0137735E-03
1068.48520	1.0278106E-03
1068.90049	1.0425354E-03
1069.31575	1.0568538E-03
1069.73098	1.0706313E-03
1070.14618	1.0842274E-03
1070.56134	1.0980339E-03
1070.97646	1.1102212E-03
1071.39156	1.1227406E-03
1071.80662	1.1348129E-03
1072.22165	1.1470158E-03
1072.63664	1.1586679E-03
1073.05160	1.1711487E-03
1073.46653	1.1834731E-03
1073.88143	1.1967163E-03
1074.29629	1.2106302E-03
1074.71112	1.2251021E-03
1075.12591	1.2405325E-03
1075.54068	1.2574565E-03
1075.95540	1.2749291E-03
1076.37010	1.2929168E-03
1076.78476	1.3119391E-03
1077.19939	1.3318250E-03
1077.61398	1.3531764E-03
1078.02855	1.3743597E-03
1078.44307	1.3956482E-03
1078.85757	1.4170330E-03
1079.27203	1.4378234E-03
1079.68646	1.4582329E-03
1080.10086	1.4788342E-03
1080.51522	1.4991344E-03
1080.92955	1.5192818E-03
1081.34384	1.5384337E-03
1081.75810	1.5567308E-03
1082.17233	1.5746177E-03
1082.58653	1.5931699E-03
1083.00069	1.6126670E-03
1083.41482	1.6332695E-03
1083.82891	1.6574335E-03
1084.24297	1.6816918E-03
1084.65700	1.7080302E-03
1085.07099	1.7362937E-03
1085.48495	1.7675361E-03
1085.89888	1.8024893E-03
1086.31278	1.8409316E-03
1086.72664	1.8803325E-03
1087.14046	1.9233872E-03
1087.55426	1.9671610E-03
1087.96802	2.0124210E-03
1088.38174	2.0569236E-03
1088.79544	2.1049437E-03
1089.20910	2.1539813E-03
1089.62272	2.2051577E-03
1090.03632	2.2565408E-03
1090.44988	2.3078571E-03
1090.86340	2.3606038E-03
1091.27689	2.4147229E-03
1091.69035	2.4716144E-03
1092.10378	2.5302892E-03
1092.51717	2.5946859E-03
1092.93053	2.6634118E-03
1093.34385	2.7332326E-03
1093.75714	2.8087199E-03
1094.17040	2.8859250E-03
1094.58363	2.9703122E-03
1094.99682	3.0591752E-03
1095.40997	3.1518937E-03
1095.82310	3.2525381E-03
1096.23619	3.3511832E-03
1096.64924	3.4556009E-03
1097.06227	3.5618715E-03
1097.47526	3.6739037E-03
1097.88821	3.7910400E-03
1098.30113	3.9073331E-03
1098.71402	4.0299632E-03
1099.12688	4.1570014E-03
1099.53970	4.2864362E-03
1099.95249	4.4217820E-03
1100.36524	4.5668852E-03
1100.77796	4.7221102E-03
1101.19065	4.8930887E-03
1101.60330	5.0680828E-03
1102.01592	5.2488678E-03
1102.42850	5.4435450E-03
1102.84106	5.6566678E-03
1103.25358	5.8845286E-03
1103.66606	6.1310097E-03
1104.07851	6.3947578E-03
1104.49093	6.6756428E-03
1104.90331	6.9748686E-03
1105.31566	7.2983805E-03
1105.72798	7.6201317E-03
1106.14026	7.9644698E-03
1106.55251	8.3326517E-03
1106.96473	8.7428217E-03
1107.37691	9.1638419E-03
1107.78905	9.6011775E-03
1108.20117	1.0076425E-02
1108.61325	1.0589039E-02
1109.02530	1.1169435E-02
1109.43731	1.1865138E-02
1109.84929	1.2630616E-02
1110.26123	1.3572209E-02
1110.67314	1.5630149E-02
1111.08502	1.8287226E-02
1111.49687	2.1734643E-02
1111.90868	2.6568022E-02
1112.32045	2.2949038E-02
1112.73220	0.0000000E+00
1113.14391	0.0000000E+00
1113.55558	0.0000000E+00
1113.96722	0.0000000E+00
