SpectraSuite Data File
++++++++++++++++++++++++++++++++++++
Date: Thu Nov 17 10:21:22 EET 2016
User: OO Maya
Dark Spectrum Present: No
Reference Spectrum Present: No
Number of Sampled Component Spectra: 1
Spectrometers: MAYP11278
Integration Time (usec): 9000000 (MAYP11278)
Spectra Averaged: 1 (MAYP11278)
Boxcar Smoothing: 0 (MAYP11278)
Correct for Electrical Dark: No (MAYP11278)
Strobe/Lamp Enabled: No (MAYP11278)
Correct for Detector Non-linearity: No (MAYP11278)
Correct for Stray Light: No (MAYP11278)
Number of Pixels in Processed Spectrum: 2068
>>>>>Begin Processed Spectral Data<<<<<
187,82	2362,00
188,30	2271,00
188,78	2239,00
189,26	2233,00
189,73	16216,00
190,21	18052,00
190,69	18514,00
191,17	18803,00
191,64	19708,00
192,12	18999,00
192,60	18647,00
193,07	17924,00
193,55	19005,00
194,03	18696,00
194,51	19282,00
194,98	18539,00
195,46	19714,00
195,94	18728,00
196,42	18915,00
196,89	21161,00
197,37	18722,00
197,85	18214,00
198,32	18582,00
198,80	18289,00
199,28	19283,00
199,76	19562,00
200,23	18723,00
200,71	18830,00
201,19	19708,00
201,66	19912,00
202,14	19628,00
202,62	18175,00
203,09	19415,00
203,57	18434,00
204,05	19961,00
204,53	20154,00
205,00	18644,00
205,48	18689,00
205,96	20378,00
206,43	18800,00
206,91	19418,00
207,39	21624,00
207,86	19374,00
208,34	19805,00
208,82	19065,00
209,29	20085,00
209,77	19536,00
210,25	19201,00
210,72	19167,00
211,20	19594,00
211,68	19385,00
212,15	18765,00
212,63	20995,00
213,11	19833,00
213,58	18864,00
214,06	20939,00
214,53	19725,00
215,01	20721,00
215,49	19910,00
215,96	20105,00
216,44	20281,00
216,92	20129,00
217,39	19178,00
217,87	19304,00
218,35	20692,00
218,82	18676,00
219,30	19180,00
219,77	19239,00
220,25	19764,00
220,73	21900,00
221,20	19464,00
221,68	21002,00
222,15	19671,00
222,63	21377,00
223,11	20384,00
223,58	21959,00
224,06	21358,00
224,53	21661,00
225,01	21776,00
225,49	23307,00
225,96	23684,00
226,44	25593,00
226,91	28334,00
227,39	29779,00
227,87	33108,00
228,34	34070,00
228,82	34126,00
229,29	32887,00
229,77	32119,00
230,24	30571,00
230,72	29520,00
231,20	27529,00
231,67	25310,00
232,15	24544,00
232,62	22789,00
233,10	22896,00
233,57	22563,00
234,05	25044,00
234,53	21702,00
235,00	20655,00
235,48	19943,00
235,95	19583,00
236,43	21146,00
236,90	22124,00
237,38	19678,00
237,85	20206,00
238,33	20112,00
238,80	20128,00
239,28	19634,00
239,75	18880,00
240,23	20201,00
240,71	20951,00
241,18	19991,00
241,66	19435,00
242,13	20324,00
242,61	20741,00
243,08	18511,00
243,56	18859,00
244,03	20299,00
244,51	20758,00
244,98	19201,00
245,46	20815,00
245,93	64000,00
246,41	18164,00
246,88	19787,00
247,36	19492,00
247,83	19674,00
248,31	19783,00
248,78	18123,00
249,26	19491,00
249,73	20066,00
250,21	19669,00
250,68	20707,00
251,16	19552,00
251,63	21172,00
252,10	20745,00
252,58	19061,00
253,05	20691,00
253,53	19358,00
254,00	19234,00
254,48	19702,00
254,95	19598,00
255,43	20372,00
255,90	18962,00
256,38	19706,00
256,85	20135,00
257,33	20253,00
257,80	22274,00
258,27	19885,00
258,75	19167,00
259,22	19863,00
259,70	19995,00
260,17	21081,00
260,65	19597,00
261,12	19078,00
261,59	20493,00
262,07	18912,00
262,54	19885,00
263,02	19334,00
263,49	18326,00
263,97	20184,00
264,44	20365,00
264,91	19243,00
265,39	19704,00
265,86	19909,00
266,34	20053,00
266,81	19333,00
267,28	19414,00
267,76	19834,00
268,23	19993,00
268,71	18218,00
269,18	18923,00
269,65	19099,00
270,13	20085,00
270,60	20692,00
271,08	19466,00
271,55	19544,00
272,02	18423,00
272,50	18661,00
272,97	17910,00
273,44	19518,00
273,92	22920,00
274,39	20248,00
274,87	20610,00
275,34	19145,00
275,81	19283,00
276,29	19883,00
276,76	20260,00
277,23	18700,00
277,71	19330,00
278,18	18832,00
278,65	23234,00
279,13	19248,00
279,60	19067,00
280,07	23113,00
280,55	20411,00
281,02	22547,00
281,50	18906,00
281,97	20431,00
282,44	19325,00
282,91	19404,00
283,39	20022,00
283,86	18702,00
284,33	18717,00
284,81	20238,00
285,28	19494,00
285,75	19813,00
286,23	19902,00
286,70	18320,00
287,17	19938,00
287,65	21341,00
288,12	19341,00
288,59	20304,00
289,07	18155,00
289,54	21102,00
290,01	18866,00
290,48	19948,00
290,96	18887,00
291,43	19837,00
291,90	21825,00
292,38	18882,00
292,85	20569,00
293,32	19162,00
293,79	20124,00
294,27	19997,00
294,74	19244,00
295,21	19378,00
295,69	19885,00
296,16	21308,00
296,63	21096,00
297,10	20298,00
297,58	19939,00
298,05	19979,00
298,52	19209,00
298,99	21164,00
299,47	19476,00
299,94	19968,00
300,41	19192,00
300,88	20446,00
301,36	20304,00
301,83	20387,00
302,30	18734,00
302,77	20293,00
303,25	20337,00
303,72	18865,00
304,19	19354,00
304,66	18975,00
305,13	19708,00
305,61	19997,00
306,08	19806,00
306,55	20070,00
307,02	19208,00
307,49	19407,00
307,97	19692,00
308,44	19343,00
308,91	20353,00
309,38	20492,00
309,86	19876,00
310,33	19560,00
310,80	20022,00
311,27	19085,00
311,74	20445,00
312,21	19491,00
312,69	21220,00
313,16	19076,00
313,63	19403,00
314,10	19712,00
314,57	19298,00
315,05	18921,00
315,52	20365,00
315,99	20160,00
316,46	19872,00
316,93	20254,00
317,40	19880,00
317,88	22542,00
318,35	19769,00
318,82	19416,00
319,29	18436,00
319,76	20024,00
320,23	21416,00
320,70	20592,00
321,18	19257,00
321,65	18230,00
322,12	18786,00
322,59	21226,00
323,06	19442,00
323,53	22166,00
324,00	18549,00
324,48	19768,00
324,95	19404,00
325,42	19321,00
325,89	19326,00
326,36	19376,00
326,83	20218,00
327,30	20125,00
327,77	20101,00
328,24	19759,00
328,72	19538,00
329,19	19289,00
329,66	19347,00
330,13	19086,00
330,60	20484,00
331,07	20255,00
331,54	21292,00
332,01	18991,00
332,48	21594,00
332,95	20390,00
333,43	20139,00
333,90	20935,00
334,37	19976,00
334,84	20551,00
335,31	23478,00
335,78	18873,00
336,25	19597,00
336,72	19439,00
337,19	19990,00
337,66	19490,00
338,13	19356,00
338,60	21176,00
339,07	20714,00
339,54	18780,00
340,01	18814,00
340,49	18882,00
340,96	20063,00
341,43	20668,00
341,90	19129,00
342,37	19822,00
342,84	20173,00
343,31	19719,00
343,78	19318,00
344,25	19579,00
344,72	19009,00
345,19	19558,00
345,66	20063,00
346,13	19174,00
346,60	18795,00
347,07	21152,00
347,54	19104,00
348,01	20541,00
348,48	19751,00
348,95	18382,00
349,42	19608,00
349,89	20314,00
350,36	19443,00
350,83	18724,00
351,30	19838,00
351,77	21298,00
352,24	19892,00
352,71	19406,00
353,18	19809,00
353,65	20115,00
354,12	19645,00
354,59	20216,00
355,06	19742,00
355,53	21158,00
356,00	19070,00
356,47	21051,00
356,94	18896,00
357,41	22208,00
357,88	20085,00
358,35	18436,00
358,82	18836,00
359,28	18967,00
359,75	18990,00
360,22	20297,00
360,69	20936,00
361,16	19156,00
361,63	19404,00
362,10	19561,00
362,57	19340,00
363,04	19414,00
363,51	21796,00
363,98	20128,00
364,45	18853,00
364,92	20058,00
365,39	19080,00
365,86	18496,00
366,32	19784,00
366,79	19470,00
367,26	31354,00
367,73	18170,00
368,20	18713,00
368,67	20210,00
369,14	18670,00
369,61	20520,00
370,08	19806,00
370,55	19184,00
371,02	26463,00
371,48	19888,00
371,95	19015,00
372,42	18332,00
372,89	18844,00
373,36	19535,00
373,83	18447,00
374,30	18888,00
374,77	19651,00
375,23	18203,00
375,70	21148,00
376,17	19181,00
376,64	18733,00
377,11	18655,00
377,58	19980,00
378,05	19887,00
378,51	19464,00
378,98	19774,00
379,45	19466,00
379,92	20061,00
380,39	22020,00
380,86	19733,00
381,33	21083,00
381,79	20852,00
382,26	18536,00
382,73	19930,00
383,20	19228,00
383,67	20457,00
384,14	19523,00
384,60	24684,00
385,07	19730,00
385,54	19174,00
386,01	19500,00
386,48	21442,00
386,94	18913,00
387,41	18715,00
387,88	20619,00
388,35	20012,00
388,82	20932,00
389,28	19228,00
389,75	20302,00
390,22	20148,00
390,69	20457,00
391,16	20312,00
391,62	20308,00
392,09	20498,00
392,56	20251,00
393,03	20332,00
393,50	23249,00
393,96	21598,00
394,43	22831,00
394,90	21693,00
395,37	23784,00
395,83	27976,00
396,30	22474,00
396,77	24884,00
397,24	26908,00
397,70	27366,00
398,17	29922,00
398,64	31267,00
399,11	32430,00
399,57	35878,00
400,04	35733,00
400,51	38323,00
400,98	40443,00
401,44	43106,00
401,91	44735,00
402,38	46534,00
402,84	47685,00
403,31	52072,00
403,78	53609,00
404,25	58113,00
404,71	60404,00
405,18	58749,00
405,65	57324,00
406,12	59976,00
406,58	62036,00
407,05	64000,00
407,52	64000,00
407,98	64000,00
408,45	64000,00
408,92	64000,00
409,38	64000,00
409,85	64000,00
410,32	64000,00
410,78	64000,00
411,25	64000,00
411,72	64000,00
412,18	64000,00
412,65	64000,00
413,12	64000,00
413,59	64000,00
414,05	64000,00
414,52	64000,00
414,98	64000,00
415,45	64000,00
415,92	64000,00
416,38	64000,00
416,85	64000,00
417,32	64000,00
417,78	64000,00
418,25	64000,00
418,72	64000,00
419,18	64000,00
419,65	64000,00
420,12	64000,00
420,58	64000,00
421,05	64000,00
421,51	64000,00
421,98	64000,00
422,45	64000,00
422,91	64000,00
423,38	64000,00
423,85	64000,00
424,31	64000,00
424,78	64000,00
425,24	64000,00
425,71	64000,00
426,18	64000,00
426,64	64000,00
427,11	64000,00
427,57	64000,00
428,04	64000,00
428,51	64000,00
428,97	64000,00
429,44	64000,00
429,90	64000,00
430,37	64000,00
430,83	64000,00
431,30	64000,00
431,77	64000,00
432,23	64000,00
432,70	64000,00
433,16	64000,00
433,63	64000,00
434,09	64000,00
434,56	64000,00
435,03	64000,00
435,49	64000,00
435,96	64000,00
436,42	64000,00
436,89	64000,00
437,35	64000,00
437,82	64000,00
438,28	64000,00
438,75	64000,00
439,21	64000,00
439,68	64000,00
440,14	64000,00
440,61	64000,00
441,07	64000,00
441,54	64000,00
442,00	64000,00
442,47	64000,00
442,94	64000,00
443,40	64000,00
443,87	64000,00
444,33	64000,00
444,80	64000,00
445,26	64000,00
445,73	64000,00
446,19	64000,00
446,65	64000,00
447,12	64000,00
447,58	64000,00
448,05	64000,00
448,51	64000,00
448,98	64000,00
449,44	64000,00
449,91	64000,00
450,37	64000,00
450,84	64000,00
451,30	64000,00
451,77	64000,00
452,23	64000,00
452,70	64000,00
453,16	64000,00
453,62	64000,00
454,09	64000,00
454,55	64000,00
455,02	64000,00
455,48	64000,00
455,95	64000,00
456,41	64000,00
456,88	64000,00
457,34	64000,00
457,80	64000,00
458,27	64000,00
458,73	64000,00
459,20	64000,00
459,66	64000,00
460,13	64000,00
460,59	64000,00
461,05	64000,00
461,52	64000,00
461,98	64000,00
462,45	64000,00
462,91	64000,00
463,37	64000,00
463,84	64000,00
464,30	64000,00
464,76	64000,00
465,23	64000,00
465,69	64000,00
466,16	64000,00
466,62	64000,00
467,08	64000,00
467,55	64000,00
468,01	64000,00
468,48	64000,00
468,94	64000,00
469,40	64000,00
469,87	64000,00
470,33	64000,00
470,79	64000,00
471,26	64000,00
471,72	64000,00
472,18	64000,00
472,65	64000,00
473,11	64000,00
473,57	64000,00
474,04	64000,00
474,50	64000,00
474,96	64000,00
475,43	64000,00
475,89	64000,00
476,35	64000,00
476,82	64000,00
477,28	64000,00
477,74	64000,00
478,21	64000,00
478,67	64000,00
479,13	64000,00
479,59	64000,00
480,06	64000,00
480,52	64000,00
480,98	64000,00
481,45	64000,00
481,91	64000,00
482,37	64000,00
482,84	64000,00
483,30	64000,00
483,76	64000,00
484,22	64000,00
484,69	64000,00
485,15	64000,00
485,61	64000,00
486,07	64000,00
486,54	64000,00
487,00	64000,00
487,46	64000,00
487,92	64000,00
488,39	64000,00
488,85	64000,00
489,31	64000,00
489,77	64000,00
490,24	64000,00
490,70	64000,00
491,16	64000,00
491,62	64000,00
492,09	64000,00
492,55	64000,00
493,01	64000,00
493,47	64000,00
493,94	64000,00
494,40	64000,00
494,86	64000,00
495,32	64000,00
495,78	64000,00
496,25	64000,00
496,71	64000,00
497,17	64000,00
497,63	64000,00
498,09	64000,00
498,56	64000,00
499,02	64000,00
499,48	64000,00
499,94	64000,00
500,40	64000,00
500,87	64000,00
501,33	64000,00
501,79	64000,00
502,25	64000,00
502,71	64000,00
503,17	64000,00
503,64	64000,00
504,10	64000,00
504,56	64000,00
505,02	64000,00
505,48	64000,00
505,94	64000,00
506,40	64000,00
506,87	64000,00
507,33	64000,00
507,79	64000,00
508,25	64000,00
508,71	64000,00
509,17	64000,00
509,63	64000,00
510,10	64000,00
510,56	64000,00
511,02	64000,00
511,48	64000,00
511,94	64000,00
512,40	64000,00
512,86	64000,00
513,32	64000,00
513,78	64000,00
514,25	64000,00
514,71	64000,00
515,17	64000,00
515,63	64000,00
516,09	64000,00
516,55	64000,00
517,01	64000,00
517,47	64000,00
517,93	64000,00
518,39	64000,00
518,85	64000,00
519,32	64000,00
519,78	64000,00
520,24	64000,00
520,70	64000,00
521,16	64000,00
521,62	64000,00
522,08	64000,00
522,54	64000,00
523,00	64000,00
523,46	64000,00
523,92	64000,00
524,38	64000,00
524,84	64000,00
525,30	64000,00
525,76	64000,00
526,22	64000,00
526,68	64000,00
527,14	64000,00
527,60	64000,00
528,06	64000,00
528,52	64000,00
528,98	64000,00
529,44	64000,00
529,90	64000,00
530,36	64000,00
530,82	64000,00
531,28	64000,00
531,74	64000,00
532,20	64000,00
532,66	64000,00
533,12	64000,00
533,58	64000,00
534,04	64000,00
534,50	64000,00
534,96	64000,00
535,42	64000,00
535,88	64000,00
536,34	64000,00
536,80	64000,00
537,26	64000,00
537,72	64000,00
538,18	64000,00
538,64	64000,00
539,10	64000,00
539,56	64000,00
540,02	64000,00
540,48	64000,00
540,94	64000,00
541,40	64000,00
541,86	64000,00
542,32	64000,00
542,78	64000,00
543,24	64000,00
543,69	64000,00
544,15	64000,00
544,61	64000,00
545,07	64000,00
545,53	64000,00
545,99	64000,00
546,45	64000,00
546,91	64000,00
547,37	64000,00
547,83	64000,00
548,29	64000,00
548,74	64000,00
549,20	64000,00
549,66	64000,00
550,12	64000,00
550,58	64000,00
551,04	64000,00
551,50	64000,00
551,96	64000,00
552,42	64000,00
552,87	64000,00
553,33	64000,00
553,79	64000,00
554,25	64000,00
554,71	64000,00
555,17	64000,00
555,63	64000,00
556,08	64000,00
556,54	64000,00
557,00	64000,00
557,46	64000,00
557,92	64000,00
558,38	64000,00
558,83	64000,00
559,29	64000,00
559,75	64000,00
560,21	64000,00
560,67	64000,00
561,13	64000,00
561,58	64000,00
562,04	64000,00
562,50	64000,00
562,96	64000,00
563,42	64000,00
563,87	64000,00
564,33	64000,00
564,79	64000,00
565,25	64000,00
565,71	64000,00
566,16	64000,00
566,62	64000,00
567,08	64000,00
567,54	64000,00
568,00	64000,00
568,45	64000,00
568,91	64000,00
569,37	64000,00
569,83	64000,00
570,28	64000,00
570,74	64000,00
571,20	64000,00
571,66	64000,00
572,11	64000,00
572,57	64000,00
573,03	64000,00
573,49	64000,00
573,94	64000,00
574,40	64000,00
574,86	64000,00
575,32	64000,00
575,77	64000,00
576,23	64000,00
576,69	64000,00
577,15	64000,00
577,60	64000,00
578,06	64000,00
578,52	64000,00
578,97	64000,00
579,43	64000,00
579,89	64000,00
580,34	64000,00
580,80	64000,00
581,26	64000,00
581,72	64000,00
582,17	64000,00
582,63	64000,00
583,09	64000,00
583,54	64000,00
584,00	64000,00
584,46	64000,00
584,91	64000,00
585,37	64000,00
585,83	64000,00
586,28	64000,00
586,74	64000,00
587,20	64000,00
587,65	64000,00
588,11	64000,00
588,57	64000,00
589,02	64000,00
589,48	64000,00
589,94	64000,00
590,39	64000,00
590,85	64000,00
591,30	64000,00
591,76	64000,00
592,22	64000,00
592,67	64000,00
593,13	64000,00
593,59	64000,00
594,04	64000,00
594,50	64000,00
594,95	64000,00
595,41	64000,00
595,87	64000,00
596,32	64000,00
596,78	64000,00
597,23	64000,00
597,69	64000,00
598,15	64000,00
598,60	64000,00
599,06	64000,00
599,51	64000,00
599,97	64000,00
600,43	64000,00
600,88	64000,00
601,34	64000,00
601,79	64000,00
602,25	64000,00
602,70	64000,00
603,16	64000,00
603,61	64000,00
604,07	64000,00
604,53	64000,00
604,98	64000,00
605,44	64000,00
605,89	64000,00
606,35	64000,00
606,80	64000,00
607,26	64000,00
607,71	64000,00
608,17	64000,00
608,62	64000,00
609,08	64000,00
609,53	64000,00
609,99	64000,00
610,44	64000,00
610,90	64000,00
611,35	64000,00
611,81	64000,00
612,26	64000,00
612,72	64000,00
613,17	64000,00
613,63	64000,00
614,08	64000,00
614,54	64000,00
614,99	64000,00
615,45	64000,00
615,90	64000,00
616,36	64000,00
616,81	64000,00
617,27	64000,00
617,72	64000,00
618,18	64000,00
618,63	64000,00
619,09	64000,00
619,54	64000,00
619,99	64000,00
620,45	64000,00
620,90	64000,00
621,36	64000,00
621,81	64000,00
622,27	64000,00
622,72	64000,00
623,18	64000,00
623,63	64000,00
624,08	64000,00
624,54	64000,00
624,99	64000,00
625,45	64000,00
625,90	64000,00
626,35	64000,00
626,81	64000,00
627,26	64000,00
627,72	64000,00
628,17	64000,00
628,62	64000,00
629,08	64000,00
629,53	64000,00
629,99	64000,00
630,44	64000,00
630,89	64000,00
631,35	64000,00
631,80	64000,00
632,26	64000,00
632,71	64000,00
633,16	64000,00
633,62	64000,00
634,07	64000,00
634,52	64000,00
634,98	64000,00
635,43	64000,00
635,88	64000,00
636,34	64000,00
636,79	64000,00
637,24	64000,00
637,70	64000,00
638,15	64000,00
638,60	64000,00
639,06	64000,00
639,51	64000,00
639,96	64000,00
640,42	64000,00
640,87	64000,00
641,32	64000,00
641,78	64000,00
642,23	64000,00
642,68	64000,00
643,14	64000,00
643,59	64000,00
644,04	64000,00
644,49	64000,00
644,95	64000,00
645,40	64000,00
645,85	64000,00
646,31	64000,00
646,76	64000,00
647,21	64000,00
647,66	64000,00
648,12	64000,00
648,57	64000,00
649,02	64000,00
649,47	64000,00
649,93	64000,00
650,38	64000,00
650,83	64000,00
651,28	64000,00
651,74	64000,00
652,19	64000,00
652,64	64000,00
653,09	64000,00
653,55	64000,00
654,00	64000,00
654,45	64000,00
654,90	64000,00
655,35	64000,00
655,81	64000,00
656,26	64000,00
656,71	64000,00
657,16	64000,00
657,62	64000,00
658,07	64000,00
658,52	64000,00
658,97	64000,00
659,42	64000,00
659,88	64000,00
660,33	64000,00
660,78	64000,00
661,23	64000,00
661,68	64000,00
662,13	64000,00
662,59	64000,00
663,04	64000,00
663,49	64000,00
663,94	64000,00
664,39	64000,00
664,84	64000,00
665,30	64000,00
665,75	64000,00
666,20	64000,00
666,65	64000,00
667,10	64000,00
667,55	64000,00
668,00	64000,00
668,46	64000,00
668,91	64000,00
669,36	64000,00
669,81	64000,00
670,26	64000,00
670,71	64000,00
671,16	64000,00
671,61	64000,00
672,06	64000,00
672,52	64000,00
672,97	64000,00
673,42	64000,00
673,87	64000,00
674,32	64000,00
674,77	64000,00
675,22	64000,00
675,67	64000,00
676,12	64000,00
676,57	64000,00
677,02	64000,00
677,47	64000,00
677,93	64000,00
678,38	64000,00
678,83	64000,00
679,28	64000,00
679,73	64000,00
680,18	64000,00
680,63	64000,00
681,08	64000,00
681,53	64000,00
681,98	64000,00
682,43	64000,00
682,88	64000,00
683,33	64000,00
683,78	64000,00
684,23	64000,00
684,68	64000,00
685,13	64000,00
685,58	64000,00
686,03	64000,00
686,48	64000,00
686,93	64000,00
687,38	64000,00
687,83	64000,00
688,28	64000,00
688,73	64000,00
689,18	64000,00
689,63	64000,00
690,08	64000,00
690,53	64000,00
690,98	64000,00
691,43	64000,00
691,88	64000,00
692,33	64000,00
692,78	64000,00
693,23	64000,00
693,68	64000,00
694,13	64000,00
694,58	64000,00
695,03	64000,00
695,48	64000,00
695,93	64000,00
696,38	64000,00
696,83	64000,00
697,28	64000,00
697,72	64000,00
698,17	64000,00
698,62	64000,00
699,07	64000,00
699,52	64000,00
699,97	64000,00
700,42	64000,00
700,87	64000,00
701,32	64000,00
701,77	64000,00
702,22	64000,00
702,67	64000,00
703,11	64000,00
703,56	64000,00
704,01	64000,00
704,46	64000,00
704,91	64000,00
705,36	64000,00
705,81	64000,00
706,26	64000,00
706,70	64000,00
707,15	64000,00
707,60	64000,00
708,05	64000,00
708,50	64000,00
708,95	64000,00
709,40	64000,00
709,84	64000,00
710,29	64000,00
710,74	64000,00
711,19	64000,00
711,64	64000,00
712,09	64000,00
712,53	64000,00
712,98	64000,00
713,43	64000,00
713,88	64000,00
714,33	64000,00
714,78	64000,00
715,22	64000,00
715,67	64000,00
716,12	64000,00
716,57	64000,00
717,02	64000,00
717,46	64000,00
717,91	64000,00
718,36	64000,00
718,81	64000,00
719,26	64000,00
719,70	64000,00
720,15	64000,00
720,60	64000,00
721,05	64000,00
721,49	64000,00
721,94	64000,00
722,39	64000,00
722,84	64000,00
723,28	64000,00
723,73	64000,00
724,18	64000,00
724,63	64000,00
725,07	64000,00
725,52	64000,00
725,97	64000,00
726,42	64000,00
726,86	64000,00
727,31	64000,00
727,76	64000,00
728,21	64000,00
728,65	64000,00
729,10	64000,00
729,55	64000,00
729,99	64000,00
730,44	64000,00
730,89	64000,00
731,33	64000,00
731,78	64000,00
732,23	64000,00
732,68	64000,00
733,12	64000,00
733,57	64000,00
734,02	64000,00
734,46	64000,00
734,91	64000,00
735,36	64000,00
735,80	64000,00
736,25	64000,00
736,70	64000,00
737,14	64000,00
737,59	64000,00
738,04	64000,00
738,48	64000,00
738,93	64000,00
739,37	64000,00
739,82	64000,00
740,27	64000,00
740,71	64000,00
741,16	64000,00
741,61	64000,00
742,05	64000,00
742,50	64000,00
742,94	64000,00
743,39	64000,00
743,84	64000,00
744,28	64000,00
744,73	64000,00
745,18	64000,00
745,62	64000,00
746,07	64000,00
746,51	64000,00
746,96	64000,00
747,40	64000,00
747,85	64000,00
748,30	64000,00
748,74	64000,00
749,19	64000,00
749,63	64000,00
750,08	64000,00
750,52	64000,00
750,97	64000,00
751,42	64000,00
751,86	64000,00
752,31	64000,00
752,75	64000,00
753,20	64000,00
753,64	64000,00
754,09	64000,00
754,53	64000,00
754,98	64000,00
755,42	64000,00
755,87	64000,00
756,31	64000,00
756,76	64000,00
757,20	64000,00
757,65	64000,00
758,09	64000,00
758,54	64000,00
758,98	64000,00
759,43	64000,00
759,87	64000,00
760,32	64000,00
760,76	64000,00
761,21	64000,00
761,65	64000,00
762,10	64000,00
762,54	64000,00
762,99	64000,00
763,43	64000,00
763,88	64000,00
764,32	64000,00
764,77	64000,00
765,21	64000,00
765,66	64000,00
766,10	64000,00
766,54	64000,00
766,99	64000,00
767,43	64000,00
767,88	64000,00
768,32	64000,00
768,77	64000,00
769,21	64000,00
769,66	64000,00
770,10	64000,00
770,54	64000,00
770,99	64000,00
771,43	64000,00
771,88	64000,00
772,32	64000,00
772,76	64000,00
773,21	64000,00
773,65	64000,00
774,10	64000,00
774,54	64000,00
774,98	64000,00
775,43	64000,00
775,87	64000,00
776,31	64000,00
776,76	64000,00
777,20	64000,00
777,65	64000,00
778,09	64000,00
778,53	64000,00
778,98	64000,00
779,42	64000,00
779,86	64000,00
780,31	64000,00
780,75	64000,00
781,19	64000,00
781,64	64000,00
782,08	64000,00
782,52	64000,00
782,97	64000,00
783,41	64000,00
783,85	64000,00
784,30	64000,00
784,74	64000,00
785,18	64000,00
785,63	64000,00
786,07	64000,00
786,51	64000,00
786,95	64000,00
787,40	64000,00
787,84	64000,00
788,28	64000,00
788,73	64000,00
789,17	64000,00
789,61	64000,00
790,05	64000,00
790,50	64000,00
790,94	64000,00
791,38	64000,00
791,82	64000,00
792,27	64000,00
792,71	64000,00
793,15	64000,00
793,59	64000,00
794,04	64000,00
794,48	64000,00
794,92	64000,00
795,36	64000,00
795,81	64000,00
796,25	64000,00
796,69	64000,00
797,13	64000,00
797,57	64000,00
798,02	64000,00
798,46	64000,00
798,90	64000,00
799,34	64000,00
799,79	64000,00
800,23	64000,00
800,67	64000,00
801,11	64000,00
801,55	64000,00
801,99	64000,00
802,44	64000,00
802,88	64000,00
803,32	64000,00
803,76	64000,00
804,20	64000,00
804,64	64000,00
805,09	64000,00
805,53	64000,00
805,97	64000,00
806,41	64000,00
806,85	64000,00
807,29	64000,00
807,74	64000,00
808,18	64000,00
808,62	64000,00
809,06	64000,00
809,50	64000,00
809,94	64000,00
810,38	64000,00
810,82	64000,00
811,27	64000,00
811,71	64000,00
812,15	64000,00
812,59	64000,00
813,03	64000,00
813,47	64000,00
813,91	64000,00
814,35	64000,00
814,79	64000,00
815,23	64000,00
815,67	64000,00
816,12	64000,00
816,56	64000,00
817,00	64000,00
817,44	64000,00
817,88	64000,00
818,32	64000,00
818,76	64000,00
819,20	64000,00
819,64	64000,00
820,08	64000,00
820,52	64000,00
820,96	64000,00
821,40	64000,00
821,84	64000,00
822,28	64000,00
822,72	64000,00
823,16	64000,00
823,60	64000,00
824,04	64000,00
824,48	64000,00
824,92	64000,00
825,36	64000,00
825,80	64000,00
826,24	64000,00
826,68	64000,00
827,12	64000,00
827,56	64000,00
828,00	64000,00
828,44	64000,00
828,88	64000,00
829,32	64000,00
829,76	64000,00
830,20	64000,00
830,64	64000,00
831,08	64000,00
831,52	64000,00
831,96	64000,00
832,40	64000,00
832,84	64000,00
833,28	64000,00
833,72	64000,00
834,16	64000,00
834,60	64000,00
835,04	64000,00
835,48	64000,00
835,91	64000,00
836,35	64000,00
836,79	64000,00
837,23	64000,00
837,67	64000,00
838,11	64000,00
838,55	64000,00
838,99	64000,00
839,43	64000,00
839,87	64000,00
840,30	64000,00
840,74	64000,00
841,18	64000,00
841,62	64000,00
842,06	64000,00
842,50	64000,00
842,94	64000,00
843,38	64000,00
843,81	64000,00
844,25	64000,00
844,69	64000,00
845,13	64000,00
845,57	64000,00
846,01	64000,00
846,45	64000,00
846,88	64000,00
847,32	64000,00
847,76	64000,00
848,20	64000,00
848,64	64000,00
849,08	64000,00
849,51	64000,00
849,95	64000,00
850,39	64000,00
850,83	64000,00
851,27	64000,00
851,70	64000,00
852,14	64000,00
852,58	64000,00
853,02	64000,00
853,46	64000,00
853,89	64000,00
854,33	64000,00
854,77	64000,00
855,21	64000,00
855,65	64000,00
856,08	64000,00
856,52	64000,00
856,96	64000,00
857,40	64000,00
857,83	64000,00
858,27	64000,00
858,71	64000,00
859,15	64000,00
859,58	64000,00
860,02	64000,00
860,46	64000,00
860,89	64000,00
861,33	64000,00
861,77	64000,00
862,21	64000,00
862,64	64000,00
863,08	64000,00
863,52	64000,00
863,95	64000,00
864,39	64000,00
864,83	64000,00
865,27	64000,00
865,70	64000,00
866,14	64000,00
866,58	64000,00
867,01	64000,00
867,45	64000,00
867,89	64000,00
868,32	64000,00
868,76	64000,00
869,20	64000,00
869,63	64000,00
870,07	64000,00
870,51	64000,00
870,94	64000,00
871,38	64000,00
871,82	64000,00
872,25	64000,00
872,69	64000,00
873,13	64000,00
873,56	64000,00
874,00	64000,00
874,43	64000,00
874,87	64000,00
875,31	64000,00
875,74	64000,00
876,18	64000,00
876,61	64000,00
877,05	64000,00
877,49	64000,00
877,92	64000,00
878,36	64000,00
878,79	64000,00
879,23	64000,00
879,67	64000,00
880,10	64000,00
880,54	64000,00
880,97	64000,00
881,41	64000,00
881,84	64000,00
882,28	64000,00
882,72	64000,00
883,15	64000,00
883,59	64000,00
884,02	64000,00
884,46	64000,00
884,89	64000,00
885,33	64000,00
885,76	64000,00
886,20	64000,00
886,63	64000,00
887,07	64000,00
887,50	64000,00
887,94	64000,00
888,37	64000,00
888,81	64000,00
889,24	64000,00
889,68	64000,00
890,11	64000,00
890,55	64000,00
890,98	64000,00
891,42	64000,00
891,85	64000,00
892,29	64000,00
892,72	64000,00
893,16	64000,00
893,59	64000,00
894,03	64000,00
894,46	64000,00
894,90	64000,00
895,33	64000,00
895,77	64000,00
896,20	64000,00
896,63	64000,00
897,07	64000,00
897,50	64000,00
897,94	64000,00
898,37	64000,00
898,81	64000,00
899,24	64000,00
899,68	64000,00
900,11	64000,00
900,54	64000,00
900,98	64000,00
901,41	64000,00
901,85	64000,00
902,28	64000,00
902,71	64000,00
903,15	64000,00
903,58	64000,00
904,02	64000,00
904,45	64000,00
904,88	64000,00
905,32	64000,00
905,75	64000,00
906,18	64000,00
906,62	64000,00
907,05	64000,00
907,48	64000,00
907,92	64000,00
908,35	64000,00
908,79	64000,00
909,22	64000,00
909,65	64000,00
910,09	64000,00
910,52	64000,00
910,95	64000,00
911,38	64000,00
911,82	64000,00
912,25	64000,00
912,68	64000,00
913,12	64000,00
913,55	64000,00
913,98	64000,00
914,42	64000,00
914,85	64000,00
915,28	64000,00
915,72	64000,00
916,15	64000,00
916,58	64000,00
917,01	64000,00
917,45	64000,00
917,88	64000,00
918,31	64000,00
918,74	64000,00
919,18	64000,00
919,61	64000,00
920,04	64000,00
920,47	64000,00
920,91	64000,00
921,34	64000,00
921,77	64000,00
922,20	64000,00
922,64	64000,00
923,07	64000,00
923,50	64000,00
923,93	64000,00
924,37	64000,00
924,80	64000,00
925,23	64000,00
925,66	64000,00
926,09	64000,00
926,53	64000,00
926,96	64000,00
927,39	64000,00
927,82	64000,00
928,25	64000,00
928,69	64000,00
929,12	64000,00
929,55	64000,00
929,98	64000,00
930,41	64000,00
930,84	64000,00
931,28	64000,00
931,71	63848,00
932,14	60463,00
932,57	60379,00
933,00	56385,00
933,43	55818,00
933,86	53916,00
934,30	53913,00
934,73	54601,00
935,16	51640,00
935,59	52255,00
936,02	52189,00
936,45	52513,00
936,88	52644,00
937,31	55170,00
937,75	54882,00
938,18	55507,00
938,61	57024,00
939,04	55544,00
939,47	54587,00
939,90	53117,00
940,33	53246,00
940,76	48881,00
941,19	49564,00
941,62	47879,00
942,05	46758,00
942,48	46911,00
942,91	46742,00
943,35	47037,00
943,78	47610,00
944,21	48865,00
944,64	50303,00
945,07	50055,00
945,50	50812,00
945,93	51524,00
946,36	53581,00
946,79	53329,00
947,22	54298,00
947,65	53121,00
948,08	52122,00
948,51	52784,00
948,94	52394,00
949,37	53695,00
949,80	51901,00
950,23	51057,00
950,66	51326,00
951,09	51573,00
951,52	50001,00
951,95	52514,00
952,38	53157,00
952,81	57033,00
953,24	55885,00
953,67	56688,00
954,10	57526,00
954,53	58072,00
954,96	57767,00
955,39	60030,00
955,82	58737,00
956,25	58748,00
956,68	61384,00
957,11	57549,00
957,53	57041,00
957,96	56835,00
958,39	55054,00
958,82	54412,00
959,25	55642,00
959,68	55554,00
960,11	56963,00
960,54	58908,00
960,97	60983,00
961,40	61894,00
961,83	61544,00
962,26	62597,00
962,68	64000,00
963,11	64000,00
963,54	64000,00
963,97	64000,00
964,40	63519,00
964,83	64000,00
965,26	63570,00
965,69	62644,00
966,11	62732,00
966,54	62247,00
966,97	63678,00
967,40	64000,00
967,83	64000,00
968,26	64000,00
968,69	64000,00
969,11	64000,00
969,54	64000,00
969,97	64000,00
970,40	64000,00
970,83	64000,00
971,26	64000,00
971,68	64000,00
972,11	64000,00
972,54	64000,00
972,97	64000,00
973,40	64000,00
973,82	64000,00
974,25	64000,00
974,68	64000,00
975,11	63573,00
975,54	62832,00
975,96	63364,00
976,39	63048,00
976,82	64000,00
977,25	63477,00
977,67	63709,00
978,10	64000,00
978,53	64000,00
978,96	64000,00
979,38	64000,00
979,81	64000,00
980,24	64000,00
980,67	64000,00
981,09	64000,00
981,52	64000,00
981,95	64000,00
982,38	64000,00
982,80	64000,00
983,23	64000,00
983,66	64000,00
984,08	64000,00
984,51	64000,00
984,94	64000,00
985,37	64000,00
985,79	64000,00
986,22	64000,00
986,65	64000,00
987,07	64000,00
987,50	64000,00
987,93	64000,00
988,35	64000,00
988,78	64000,00
989,21	64000,00
989,63	64000,00
990,06	64000,00
990,49	64000,00
990,91	64000,00
991,34	64000,00
991,77	64000,00
992,19	64000,00
992,62	64000,00
993,05	64000,00
993,47	64000,00
993,90	64000,00
994,32	64000,00
994,75	64000,00
995,18	64000,00
995,60	64000,00
996,03	64000,00
996,45	64000,00
996,88	64000,00
997,31	64000,00
997,73	64000,00
998,16	64000,00
998,58	64000,00
999,01	64000,00
999,44	64000,00
999,86	64000,00
1000,29	64000,00
1000,71	64000,00
1001,14	64000,00
1001,56	64000,00
1001,99	64000,00
1002,41	64000,00
1002,84	64000,00
1003,27	64000,00
1003,69	64000,00
1004,12	64000,00
1004,54	64000,00
1004,97	62589,00
1005,39	61231,00
1005,82	61902,00
1006,24	61521,00
1006,67	60292,00
1007,09	59824,00
1007,52	60614,00
1007,94	60437,00
1008,37	63906,00
1008,79	61858,00
1009,22	61580,00
1009,64	61416,00
1010,07	61304,00
1010,49	61899,00
1010,92	60669,00
1011,34	61768,00
1011,77	60824,00
1012,19	60247,00
1012,62	60046,00
1013,04	58132,00
1013,46	58887,00
1013,89	55223,00
1014,31	56072,00
1014,74	54106,00
1015,16	54442,00
1015,59	53358,00
1016,01	54599,00
1016,44	54090,00
1016,86	64000,00
1017,28	55309,00
1017,71	54280,00
1018,13	58360,00
1018,56	56995,00
1018,98	56748,00
1019,40	56176,00
1019,83	56577,00
1020,25	57384,00
1020,68	57167,00
1021,10	57678,00
1021,52	57271,00
1021,95	60860,00
1022,37	58246,00
1022,79	57687,00
1023,22	56695,00
1023,64	56070,00
1024,07	55433,00
1024,49	55236,00
1024,91	53607,00
1025,34	53275,00
1025,76	55900,00
1026,18	54020,00
1026,61	53495,00
1027,03	53543,00
1027,45	53705,00
1027,88	53481,00
1028,30	55976,00
1028,72	54343,00
1029,15	54437,00
1029,57	54770,00
1029,99	55939,00
1030,41	53481,00
1030,84	54226,00
1031,26	54394,00
1031,68	52909,00
1032,11	53976,00
1032,53	51667,00
1032,95	51054,00
1033,37	51326,00
1033,80	51080,00
1034,22	49144,00
1034,64	50724,00
1035,06	48020,00
1035,49	47480,00
1035,91	47722,00
1036,33	46161,00
1036,75	47808,00
1037,18	48127,00
1037,60	47634,00
1038,02	48052,00
1038,44	48562,00
1038,87	46886,00
1039,29	46902,00
1039,71	47884,00
1040,13	47022,00
1040,55	48768,00
1040,98	48537,00
1041,40	47982,00
1041,82	47992,00
1042,24	46913,00
1042,66	47653,00
1043,09	46005,00
1043,51	46232,00
1043,93	45810,00
1044,35	44620,00
1044,77	45000,00
1045,20	45476,00
1045,62	43827,00
1046,04	44576,00
1046,46	44506,00
1046,88	42816,00
1047,30	44132,00
1047,72	43555,00
1048,15	43391,00
1048,57	41885,00
1048,99	41808,00
1049,41	42184,00
1049,83	42221,00
1050,25	42799,00
1050,67	41830,00
1051,09	40781,00
1051,52	40698,00
1051,94	38508,00
1052,36	39921,00
1052,78	38511,00
1053,20	39202,00
1053,62	38746,00
1054,04	39033,00
1054,46	39076,00
1054,88	40125,00
1055,30	39077,00
1055,72	38337,00
1056,14	37636,00
1056,57	40644,00
1056,99	35912,00
1057,41	36791,00
1057,83	36781,00
1058,25	35759,00
1058,67	35508,00
1059,09	35019,00
1059,51	36319,00
1059,93	35359,00
1060,35	34760,00
1060,77	35683,00
1061,19	36197,00
1061,61	35309,00
1062,03	34858,00
1062,45	34401,00
1062,87	35710,00
1063,29	35936,00
1063,71	34734,00
1064,13	34493,00
1064,55	33858,00
1064,97	36009,00
1065,39	34912,00
1065,81	34794,00
1066,23	35367,00
1066,65	34712,00
1067,07	36800,00
1067,49	35125,00
1067,91	34749,00
1068,33	34449,00
1068,75	36284,00
1069,17	36733,00
1069,59	36885,00
1070,00	35958,00
1070,42	37731,00
1070,84	37922,00
1071,26	38550,00
1071,68	38945,00
1072,10	40702,00
1072,52	41094,00
1072,94	41553,00
1073,36	42125,00
1073,78	40674,00
1074,20	39720,00
1074,62	37960,00
1075,03	37200,00
1075,45	37193,00
1075,87	38136,00
1076,29	36706,00
1076,71	37575,00
1077,13	38130,00
1077,55	35138,00
1077,97	36444,00
1078,38	35566,00
1078,80	35578,00
1079,22	35903,00
1079,64	35070,00
1080,06	34842,00
1080,48	35305,00
1080,89	34628,00
1081,31	34119,00
1081,73	34137,00
1082,15	33680,00
1082,57	34376,00
1082,99	33155,00
1083,40	32418,00
1083,82	33702,00
1084,24	31631,00
1084,66	31644,00
1085,08	32051,00
1085,49	29976,00
1085,91	31907,00
1086,33	46726,00
1086,75	31466,00
1087,17	29998,00
1087,58	29901,00
1088,00	29796,00
1088,42	30466,00
1088,84	29353,00
1089,25	28160,00
1089,67	28458,00
1090,09	28123,00
1090,51	27377,00
1090,92	28179,00
1091,34	26985,00
1091,76	27119,00
1092,18	26444,00
1092,59	26491,00
1093,01	26268,00
1093,43	26065,00
1093,84	25293,00
1094,26	25688,00
1094,68	25990,00
1095,10	24533,00
1095,51	25271,00
1095,93	24792,00
1096,35	25408,00
1096,76	25472,00
1097,18	25049,00
1097,60	24562,00
1098,01	24250,00
1098,43	23760,00
1098,85	23994,00
1099,26	23448,00
1099,68	23856,00
1100,10	22861,00
1100,51	23021,00
1100,93	23126,00
1101,35	23041,00
1101,76	23106,00
1102,18	30277,00
1102,60	24250,00
1103,01	21088,00
1103,43	22767,00
1103,84	22325,00
1104,26	21847,00
1104,68	22267,00
1105,09	20767,00
1105,51	21189,00
1105,92	23051,00
1106,34	20798,00
1106,76	22219,00
1107,17	21927,00
1107,59	21942,00
1108,00	20164,00
1108,42	21054,00
1108,83	19963,00
1109,25	20750,00
1109,67	20005,00
1110,08	20149,00
1110,50	19448,00
1110,91	20398,00
1111,33	19646,00
1111,74	19481,00
1112,16	20413,00
1112,57	20507,00
1112,99	19396,00
1113,41	19680,00
1113,82	19320,00
1114,24	19631,00
1114,65	19204,00
1115,07	18098,00
1115,48	17404,00
1115,90	1856,00
1116,31	2242,00
1116,73	2202,00
1117,14	2197,00
>>>>>End Processed Spectral Data<<<<<
