SpectraSuite Data File
++++++++++++++++++++++++++++++++++++
Date: Thu Nov 17 10:19:43 EET 2016
User: OO Maya
Dark Spectrum Present: No
Reference Spectrum Present: No
Number of Sampled Component Spectra: 1
Spectrometers: MAYP11278
Integration Time (usec): 9000000 (MAYP11278)
Spectra Averaged: 1 (MAYP11278)
Boxcar Smoothing: 0 (MAYP11278)
Correct for Electrical Dark: No (MAYP11278)
Strobe/Lamp Enabled: No (MAYP11278)
Correct for Detector Non-linearity: No (MAYP11278)
Correct for Stray Light: No (MAYP11278)
Number of Pixels in Processed Spectrum: 2068
>>>>>Begin Processed Spectral Data<<<<<
187,82	2375,00
188,30	2287,00
188,78	2241,00
189,26	2254,00
189,73	16041,00
190,21	17762,00
190,69	18533,00
191,17	18731,00
191,64	19636,00
192,12	18962,00
192,60	18734,00
193,07	17887,00
193,55	18931,00
194,03	18570,00
194,51	19181,00
194,98	18556,00
195,46	19682,00
195,94	18638,00
196,42	18877,00
196,89	21042,00
197,37	18783,00
197,85	18212,00
198,32	18499,00
198,80	18268,00
199,28	19274,00
199,76	19584,00
200,23	18604,00
200,71	18816,00
201,19	19518,00
201,66	19726,00
202,14	19391,00
202,62	18094,00
203,09	19192,00
203,57	18404,00
204,05	19864,00
204,53	20125,00
205,00	18654,00
205,48	18570,00
205,96	20517,00
206,43	18828,00
206,91	19308,00
207,39	21592,00
207,86	19245,00
208,34	19767,00
208,82	18792,00
209,29	19995,00
209,77	19653,00
210,25	19242,00
210,72	18994,00
211,20	19585,00
211,68	19239,00
212,15	18608,00
212,63	20959,00
213,11	19957,00
213,58	19026,00
214,06	20971,00
214,53	19647,00
215,01	20763,00
215,49	19902,00
215,96	20149,00
216,44	20163,00
216,92	20215,00
217,39	18954,00
217,87	19567,00
218,35	20723,00
218,82	18530,00
219,30	19112,00
219,77	19165,00
220,25	19620,00
220,73	21910,00
221,20	19632,00
221,68	20921,00
222,15	19816,00
222,63	21326,00
223,11	20379,00
223,58	22033,00
224,06	21547,00
224,53	21789,00
225,01	22127,00
225,49	23434,00
225,96	24124,00
226,44	26346,00
226,91	29011,00
227,39	30762,00
227,87	34245,00
228,34	35390,00
228,82	35601,00
229,29	34024,00
229,77	33360,00
230,24	31836,00
230,72	30481,00
231,20	28260,00
231,67	25866,00
232,15	25047,00
232,62	23212,00
233,10	23152,00
233,57	22653,00
234,05	25316,00
234,53	21901,00
235,00	20755,00
235,48	20064,00
235,95	19521,00
236,43	21165,00
236,90	22267,00
237,38	19654,00
237,85	20334,00
238,33	20138,00
238,80	19981,00
239,28	19747,00
239,75	18865,00
240,23	20004,00
240,71	20784,00
241,18	19806,00
241,66	19485,00
242,13	20310,00
242,61	20589,00
243,08	18624,00
243,56	18667,00
244,03	20034,00
244,51	20657,00
244,98	19136,00
245,46	20751,00
245,93	62205,00
246,41	18138,00
246,88	19520,00
247,36	19333,00
247,83	19428,00
248,31	19780,00
248,78	18300,00
249,26	19535,00
249,73	20137,00
250,21	19689,00
250,68	20551,00
251,16	19621,00
251,63	21141,00
252,10	20646,00
252,58	18927,00
253,05	20506,00
253,53	19453,00
254,00	19139,00
254,48	19657,00
254,95	19608,00
255,43	20237,00
255,90	18883,00
256,38	19617,00
256,85	20095,00
257,33	20276,00
257,80	22179,00
258,27	19646,00
258,75	19009,00
259,22	19810,00
259,70	19964,00
260,17	21218,00
260,65	19472,00
261,12	19107,00
261,59	20436,00
262,07	18853,00
262,54	19821,00
263,02	19467,00
263,49	18424,00
263,97	20040,00
264,44	20348,00
264,91	19000,00
265,39	19581,00
265,86	19887,00
266,34	19990,00
266,81	19090,00
267,28	19378,00
267,76	19679,00
268,23	19982,00
268,71	18369,00
269,18	18955,00
269,65	19115,00
270,13	20096,00
270,60	20694,00
271,08	19400,00
271,55	19611,00
272,02	18576,00
272,50	18601,00
272,97	17907,00
273,44	19360,00
273,92	22835,00
274,39	20191,00
274,87	20343,00
275,34	19192,00
275,81	19383,00
276,29	19815,00
276,76	20389,00
277,23	18605,00
277,71	19413,00
278,18	18661,00
278,65	23142,00
279,13	19208,00
279,60	19081,00
280,07	23020,00
280,55	20408,00
281,02	22464,00
281,50	18982,00
281,97	20573,00
282,44	19277,00
282,91	19404,00
283,39	20043,00
283,86	18778,00
284,33	18606,00
284,81	20053,00
285,28	19624,00
285,75	19774,00
286,23	19761,00
286,70	18398,00
287,17	19869,00
287,65	21226,00
288,12	19154,00
288,59	20187,00
289,07	18127,00
289,54	20876,00
290,01	18900,00
290,48	19714,00
290,96	19147,00
291,43	19689,00
291,90	21538,00
292,38	18898,00
292,85	20408,00
293,32	19102,00
293,79	19995,00
294,27	19938,00
294,74	19192,00
295,21	19405,00
295,69	19695,00
296,16	21172,00
296,63	21134,00
297,10	20121,00
297,58	19989,00
298,05	19884,00
298,52	19103,00
298,99	21116,00
299,47	19321,00
299,94	19861,00
300,41	19099,00
300,88	20310,00
301,36	20343,00
301,83	20337,00
302,30	18810,00
302,77	20237,00
303,25	20332,00
303,72	18917,00
304,19	19276,00
304,66	18853,00
305,13	19691,00
305,61	19782,00
306,08	19730,00
306,55	20266,00
307,02	19257,00
307,49	19425,00
307,97	19810,00
308,44	19147,00
308,91	20340,00
309,38	20319,00
309,86	19856,00
310,33	19407,00
310,80	19845,00
311,27	19055,00
311,74	20434,00
312,21	19443,00
312,69	21230,00
313,16	19027,00
313,63	19291,00
314,10	19673,00
314,57	19163,00
315,05	19078,00
315,52	20362,00
315,99	20281,00
316,46	19891,00
316,93	20206,00
317,40	19842,00
317,88	22215,00
318,35	19812,00
318,82	19743,00
319,29	18752,00
319,76	20242,00
320,23	21634,00
320,70	20640,00
321,18	19853,00
321,65	18578,00
322,12	19291,00
322,59	21716,00
323,06	19990,00
323,53	22976,00
324,00	19383,00
324,48	20784,00
324,95	20637,00
325,42	20618,00
325,89	21148,00
326,36	21253,00
326,83	22429,00
327,30	22411,00
327,77	22476,00
328,24	22539,00
328,72	22797,00
329,19	23065,00
329,66	23285,00
330,13	22975,00
330,60	23898,00
331,07	23609,00
331,54	24774,00
332,01	22937,00
332,48	25861,00
332,95	24935,00
333,43	24971,00
333,90	26164,00
334,37	25798,00
334,84	26903,00
335,31	30224,00
335,78	25908,00
336,25	26294,00
336,72	25823,00
337,19	26450,00
337,66	26635,00
338,13	27221,00
338,60	29488,00
339,07	29020,00
339,54	27892,00
340,01	28165,00
340,49	28025,00
340,96	29479,00
341,43	30216,00
341,90	29609,00
342,37	30252,00
342,84	30977,00
343,31	29888,00
343,78	28538,00
344,25	28743,00
344,72	29720,00
345,19	30834,00
345,66	31154,00
346,13	30667,00
346,60	30683,00
347,07	32762,00
347,54	30532,00
348,01	32509,00
348,48	31880,00
348,95	30586,00
349,42	32333,00
349,89	34250,00
350,36	33793,00
350,83	32641,00
351,30	33466,00
351,77	35290,00
352,24	33532,00
352,71	33852,00
353,18	34970,00
353,65	35956,00
354,12	35971,00
354,59	36654,00
355,06	35595,00
355,53	36502,00
356,00	34001,00
356,47	34712,00
356,94	32124,00
357,41	35837,00
357,88	33131,00
358,35	31743,00
358,82	33689,00
359,28	35744,00
359,75	36214,00
360,22	36625,00
360,69	36390,00
361,16	35091,00
361,63	35930,00
362,10	36989,00
362,57	38035,00
363,04	37559,00
363,51	40527,00
363,98	40366,00
364,45	40075,00
364,92	43173,00
365,39	42542,00
365,86	41745,00
366,32	42580,00
366,79	41901,00
367,26	52686,00
367,73	39964,00
368,20	40675,00
368,67	42623,00
369,14	42173,00
369,61	44264,00
370,08	43074,00
370,55	41497,00
371,02	50369,00
371,48	43084,00
371,95	40558,00
372,42	40475,00
372,89	40124,00
373,36	39376,00
373,83	39918,00
374,30	40174,00
374,77	41550,00
375,23	42577,00
375,70	45747,00
376,17	44609,00
376,64	45209,00
377,11	46962,00
377,58	49453,00
378,05	49677,00
378,51	47702,00
378,98	46636,00
379,45	46212,00
379,92	47831,00
380,39	50823,00
380,86	47758,00
381,33	46726,00
381,79	44511,00
382,26	41275,00
382,73	42147,00
383,20	42252,00
383,67	44781,00
384,14	47118,00
384,60	53684,00
385,07	49347,00
385,54	48397,00
386,01	49210,00
386,48	52305,00
386,94	49858,00
387,41	50652,00
387,88	53030,00
388,35	53524,00
388,82	56302,00
389,28	57603,00
389,75	59900,00
390,22	59970,00
390,69	61344,00
391,16	61310,00
391,62	58868,00
392,09	55371,00
392,56	51668,00
393,03	48844,00
393,50	54366,00
393,96	57831,00
394,43	63043,00
394,90	63556,00
395,37	64000,00
395,83	64000,00
396,30	55807,00
396,77	57907,00
397,24	64000,00
397,70	64000,00
398,17	64000,00
398,64	64000,00
399,11	64000,00
399,57	64000,00
400,04	64000,00
400,51	64000,00
400,98	64000,00
401,44	64000,00
401,91	64000,00
402,38	64000,00
402,84	64000,00
403,31	64000,00
403,78	64000,00
404,25	64000,00
404,71	64000,00
405,18	64000,00
405,65	64000,00
406,12	64000,00
406,58	64000,00
407,05	64000,00
407,52	64000,00
407,98	64000,00
408,45	64000,00
408,92	64000,00
409,38	64000,00
409,85	64000,00
410,32	64000,00
410,78	64000,00
411,25	64000,00
411,72	64000,00
412,18	64000,00
412,65	64000,00
413,12	64000,00
413,59	64000,00
414,05	64000,00
414,52	64000,00
414,98	64000,00
415,45	64000,00
415,92	64000,00
416,38	64000,00
416,85	64000,00
417,32	64000,00
417,78	64000,00
418,25	64000,00
418,72	64000,00
419,18	64000,00
419,65	64000,00
420,12	64000,00
420,58	64000,00
421,05	64000,00
421,51	64000,00
421,98	64000,00
422,45	64000,00
422,91	64000,00
423,38	64000,00
423,85	64000,00
424,31	64000,00
424,78	64000,00
425,24	64000,00
425,71	64000,00
426,18	64000,00
426,64	64000,00
427,11	64000,00
427,57	64000,00
428,04	64000,00
428,51	64000,00
428,97	64000,00
429,44	64000,00
429,90	64000,00
430,37	64000,00
430,83	64000,00
431,30	64000,00
431,77	64000,00
432,23	64000,00
432,70	64000,00
433,16	64000,00
433,63	64000,00
434,09	64000,00
434,56	64000,00
435,03	64000,00
435,49	64000,00
435,96	64000,00
436,42	64000,00
436,89	64000,00
437,35	64000,00
437,82	64000,00
438,28	64000,00
438,75	64000,00
439,21	64000,00
439,68	64000,00
440,14	64000,00
440,61	64000,00
441,07	64000,00
441,54	64000,00
442,00	64000,00
442,47	64000,00
442,94	64000,00
443,40	64000,00
443,87	64000,00
444,33	64000,00
444,80	64000,00
445,26	64000,00
445,73	64000,00
446,19	64000,00
446,65	64000,00
447,12	64000,00
447,58	64000,00
448,05	64000,00
448,51	64000,00
448,98	64000,00
449,44	64000,00
449,91	64000,00
450,37	64000,00
450,84	64000,00
451,30	64000,00
451,77	64000,00
452,23	64000,00
452,70	64000,00
453,16	64000,00
453,62	64000,00
454,09	64000,00
454,55	64000,00
455,02	64000,00
455,48	64000,00
455,95	64000,00
456,41	64000,00
456,88	64000,00
457,34	64000,00
457,80	64000,00
458,27	64000,00
458,73	64000,00
459,20	64000,00
459,66	64000,00
460,13	64000,00
460,59	64000,00
461,05	64000,00
461,52	64000,00
461,98	64000,00
462,45	64000,00
462,91	64000,00
463,37	64000,00
463,84	64000,00
464,30	64000,00
464,76	64000,00
465,23	64000,00
465,69	64000,00
466,16	64000,00
466,62	64000,00
467,08	64000,00
467,55	64000,00
468,01	64000,00
468,48	64000,00
468,94	64000,00
469,40	64000,00
469,87	64000,00
470,33	64000,00
470,79	64000,00
471,26	64000,00
471,72	64000,00
472,18	64000,00
472,65	64000,00
473,11	64000,00
473,57	64000,00
474,04	64000,00
474,50	64000,00
474,96	64000,00
475,43	64000,00
475,89	64000,00
476,35	64000,00
476,82	64000,00
477,28	64000,00
477,74	64000,00
478,21	64000,00
478,67	64000,00
479,13	64000,00
479,59	64000,00
480,06	64000,00
480,52	64000,00
480,98	64000,00
481,45	64000,00
481,91	64000,00
482,37	64000,00
482,84	64000,00
483,30	64000,00
483,76	64000,00
484,22	64000,00
484,69	64000,00
485,15	64000,00
485,61	64000,00
486,07	64000,00
486,54	64000,00
487,00	64000,00
487,46	64000,00
487,92	64000,00
488,39	64000,00
488,85	64000,00
489,31	64000,00
489,77	64000,00
490,24	64000,00
490,70	64000,00
491,16	64000,00
491,62	64000,00
492,09	64000,00
492,55	64000,00
493,01	64000,00
493,47	64000,00
493,94	64000,00
494,40	64000,00
494,86	64000,00
495,32	64000,00
495,78	64000,00
496,25	64000,00
496,71	64000,00
497,17	64000,00
497,63	64000,00
498,09	64000,00
498,56	64000,00
499,02	64000,00
499,48	64000,00
499,94	64000,00
500,40	64000,00
500,87	64000,00
501,33	64000,00
501,79	64000,00
502,25	64000,00
502,71	64000,00
503,17	64000,00
503,64	64000,00
504,10	64000,00
504,56	64000,00
505,02	64000,00
505,48	64000,00
505,94	64000,00
506,40	64000,00
506,87	64000,00
507,33	64000,00
507,79	64000,00
508,25	64000,00
508,71	64000,00
509,17	64000,00
509,63	64000,00
510,10	64000,00
510,56	64000,00
511,02	64000,00
511,48	64000,00
511,94	64000,00
512,40	64000,00
512,86	64000,00
513,32	64000,00
513,78	64000,00
514,25	64000,00
514,71	64000,00
515,17	64000,00
515,63	64000,00
516,09	64000,00
516,55	64000,00
517,01	64000,00
517,47	64000,00
517,93	64000,00
518,39	64000,00
518,85	64000,00
519,32	64000,00
519,78	64000,00
520,24	64000,00
520,70	64000,00
521,16	64000,00
521,62	64000,00
522,08	64000,00
522,54	64000,00
523,00	64000,00
523,46	64000,00
523,92	64000,00
524,38	64000,00
524,84	64000,00
525,30	64000,00
525,76	64000,00
526,22	64000,00
526,68	64000,00
527,14	64000,00
527,60	64000,00
528,06	64000,00
528,52	64000,00
528,98	64000,00
529,44	64000,00
529,90	64000,00
530,36	64000,00
530,82	64000,00
531,28	64000,00
531,74	64000,00
532,20	64000,00
532,66	64000,00
533,12	64000,00
533,58	64000,00
534,04	64000,00
534,50	64000,00
534,96	64000,00
535,42	64000,00
535,88	64000,00
536,34	64000,00
536,80	64000,00
537,26	64000,00
537,72	64000,00
538,18	64000,00
538,64	64000,00
539,10	64000,00
539,56	64000,00
540,02	64000,00
540,48	64000,00
540,94	64000,00
541,40	64000,00
541,86	64000,00
542,32	64000,00
542,78	64000,00
543,24	64000,00
543,69	64000,00
544,15	64000,00
544,61	64000,00
545,07	64000,00
545,53	64000,00
545,99	64000,00
546,45	64000,00
546,91	64000,00
547,37	64000,00
547,83	64000,00
548,29	64000,00
548,74	64000,00
549,20	64000,00
549,66	64000,00
550,12	64000,00
550,58	64000,00
551,04	64000,00
551,50	64000,00
551,96	64000,00
552,42	64000,00
552,87	64000,00
553,33	64000,00
553,79	64000,00
554,25	64000,00
554,71	64000,00
555,17	64000,00
555,63	64000,00
556,08	64000,00
556,54	64000,00
557,00	64000,00
557,46	64000,00
557,92	64000,00
558,38	64000,00
558,83	64000,00
559,29	64000,00
559,75	64000,00
560,21	64000,00
560,67	64000,00
561,13	64000,00
561,58	64000,00
562,04	64000,00
562,50	64000,00
562,96	64000,00
563,42	64000,00
563,87	64000,00
564,33	64000,00
564,79	64000,00
565,25	64000,00
565,71	64000,00
566,16	64000,00
566,62	64000,00
567,08	64000,00
567,54	64000,00
568,00	64000,00
568,45	64000,00
568,91	64000,00
569,37	64000,00
569,83	64000,00
570,28	64000,00
570,74	64000,00
571,20	64000,00
571,66	64000,00
572,11	64000,00
572,57	64000,00
573,03	64000,00
573,49	64000,00
573,94	64000,00
574,40	64000,00
574,86	64000,00
575,32	64000,00
575,77	64000,00
576,23	64000,00
576,69	64000,00
577,15	64000,00
577,60	64000,00
578,06	64000,00
578,52	64000,00
578,97	64000,00
579,43	64000,00
579,89	64000,00
580,34	64000,00
580,80	64000,00
581,26	64000,00
581,72	64000,00
582,17	64000,00
582,63	64000,00
583,09	64000,00
583,54	64000,00
584,00	64000,00
584,46	64000,00
584,91	64000,00
585,37	64000,00
585,83	64000,00
586,28	64000,00
586,74	64000,00
587,20	64000,00
587,65	64000,00
588,11	64000,00
588,57	64000,00
589,02	64000,00
589,48	64000,00
589,94	64000,00
590,39	64000,00
590,85	64000,00
591,30	64000,00
591,76	64000,00
592,22	64000,00
592,67	64000,00
593,13	64000,00
593,59	64000,00
594,04	64000,00
594,50	64000,00
594,95	64000,00
595,41	64000,00
595,87	64000,00
596,32	64000,00
596,78	64000,00
597,23	64000,00
597,69	64000,00
598,15	64000,00
598,60	64000,00
599,06	64000,00
599,51	64000,00
599,97	64000,00
600,43	64000,00
600,88	64000,00
601,34	64000,00
601,79	64000,00
602,25	64000,00
602,70	64000,00
603,16	64000,00
603,61	64000,00
604,07	64000,00
604,53	64000,00
604,98	64000,00
605,44	64000,00
605,89	64000,00
606,35	64000,00
606,80	64000,00
607,26	64000,00
607,71	64000,00
608,17	64000,00
608,62	64000,00
609,08	64000,00
609,53	64000,00
609,99	64000,00
610,44	64000,00
610,90	64000,00
611,35	64000,00
611,81	64000,00
612,26	64000,00
612,72	64000,00
613,17	64000,00
613,63	64000,00
614,08	64000,00
614,54	64000,00
614,99	64000,00
615,45	64000,00
615,90	64000,00
616,36	64000,00
616,81	64000,00
617,27	64000,00
617,72	64000,00
618,18	64000,00
618,63	64000,00
619,09	64000,00
619,54	64000,00
619,99	64000,00
620,45	64000,00
620,90	64000,00
621,36	64000,00
621,81	64000,00
622,27	64000,00
622,72	64000,00
623,18	64000,00
623,63	64000,00
624,08	64000,00
624,54	64000,00
624,99	64000,00
625,45	64000,00
625,90	64000,00
626,35	64000,00
626,81	64000,00
627,26	64000,00
627,72	64000,00
628,17	64000,00
628,62	64000,00
629,08	64000,00
629,53	64000,00
629,99	64000,00
630,44	64000,00
630,89	64000,00
631,35	64000,00
631,80	64000,00
632,26	64000,00
632,71	64000,00
633,16	64000,00
633,62	64000,00
634,07	64000,00
634,52	64000,00
634,98	64000,00
635,43	64000,00
635,88	64000,00
636,34	64000,00
636,79	64000,00
637,24	64000,00
637,70	64000,00
638,15	64000,00
638,60	64000,00
639,06	64000,00
639,51	64000,00
639,96	64000,00
640,42	64000,00
640,87	64000,00
641,32	64000,00
641,78	64000,00
642,23	64000,00
642,68	64000,00
643,14	64000,00
643,59	64000,00
644,04	64000,00
644,49	64000,00
644,95	64000,00
645,40	64000,00
645,85	64000,00
646,31	64000,00
646,76	64000,00
647,21	64000,00
647,66	64000,00
648,12	64000,00
648,57	64000,00
649,02	64000,00
649,47	64000,00
649,93	64000,00
650,38	64000,00
650,83	64000,00
651,28	64000,00
651,74	64000,00
652,19	64000,00
652,64	64000,00
653,09	64000,00
653,55	64000,00
654,00	64000,00
654,45	64000,00
654,90	64000,00
655,35	64000,00
655,81	64000,00
656,26	64000,00
656,71	64000,00
657,16	64000,00
657,62	64000,00
658,07	64000,00
658,52	64000,00
658,97	64000,00
659,42	64000,00
659,88	64000,00
660,33	64000,00
660,78	64000,00
661,23	64000,00
661,68	64000,00
662,13	64000,00
662,59	64000,00
663,04	64000,00
663,49	64000,00
663,94	64000,00
664,39	64000,00
664,84	64000,00
665,30	64000,00
665,75	64000,00
666,20	64000,00
666,65	64000,00
667,10	64000,00
667,55	64000,00
668,00	64000,00
668,46	64000,00
668,91	64000,00
669,36	64000,00
669,81	64000,00
670,26	64000,00
670,71	64000,00
671,16	64000,00
671,61	64000,00
672,06	64000,00
672,52	64000,00
672,97	64000,00
673,42	64000,00
673,87	64000,00
674,32	64000,00
674,77	64000,00
675,22	64000,00
675,67	64000,00
676,12	64000,00
676,57	64000,00
677,02	64000,00
677,47	64000,00
677,93	64000,00
678,38	64000,00
678,83	64000,00
679,28	64000,00
679,73	64000,00
680,18	64000,00
680,63	64000,00
681,08	64000,00
681,53	64000,00
681,98	64000,00
682,43	64000,00
682,88	64000,00
683,33	64000,00
683,78	64000,00
684,23	64000,00
684,68	64000,00
685,13	64000,00
685,58	64000,00
686,03	64000,00
686,48	64000,00
686,93	64000,00
687,38	64000,00
687,83	64000,00
688,28	64000,00
688,73	64000,00
689,18	64000,00
689,63	64000,00
690,08	64000,00
690,53	64000,00
690,98	64000,00
691,43	64000,00
691,88	64000,00
692,33	64000,00
692,78	64000,00
693,23	64000,00
693,68	64000,00
694,13	64000,00
694,58	64000,00
695,03	64000,00
695,48	64000,00
695,93	64000,00
696,38	64000,00
696,83	64000,00
697,28	64000,00
697,72	64000,00
698,17	64000,00
698,62	64000,00
699,07	64000,00
699,52	64000,00
699,97	64000,00
700,42	64000,00
700,87	64000,00
701,32	64000,00
701,77	64000,00
702,22	64000,00
702,67	64000,00
703,11	64000,00
703,56	64000,00
704,01	64000,00
704,46	64000,00
704,91	64000,00
705,36	64000,00
705,81	64000,00
706,26	64000,00
706,70	64000,00
707,15	64000,00
707,60	64000,00
708,05	64000,00
708,50	64000,00
708,95	64000,00
709,40	64000,00
709,84	64000,00
710,29	64000,00
710,74	64000,00
711,19	64000,00
711,64	64000,00
712,09	64000,00
712,53	64000,00
712,98	64000,00
713,43	64000,00
713,88	64000,00
714,33	64000,00
714,78	64000,00
715,22	64000,00
715,67	64000,00
716,12	64000,00
716,57	64000,00
717,02	64000,00
717,46	64000,00
717,91	64000,00
718,36	64000,00
718,81	64000,00
719,26	64000,00
719,70	64000,00
720,15	64000,00
720,60	64000,00
721,05	64000,00
721,49	64000,00
721,94	64000,00
722,39	64000,00
722,84	64000,00
723,28	64000,00
723,73	64000,00
724,18	64000,00
724,63	64000,00
725,07	64000,00
725,52	64000,00
725,97	64000,00
726,42	64000,00
726,86	64000,00
727,31	64000,00
727,76	64000,00
728,21	64000,00
728,65	64000,00
729,10	64000,00
729,55	64000,00
729,99	64000,00
730,44	64000,00
730,89	64000,00
731,33	64000,00
731,78	64000,00
732,23	64000,00
732,68	64000,00
733,12	64000,00
733,57	64000,00
734,02	64000,00
734,46	64000,00
734,91	64000,00
735,36	64000,00
735,80	64000,00
736,25	64000,00
736,70	64000,00
737,14	64000,00
737,59	64000,00
738,04	64000,00
738,48	64000,00
738,93	64000,00
739,37	64000,00
739,82	64000,00
740,27	64000,00
740,71	64000,00
741,16	64000,00
741,61	64000,00
742,05	64000,00
742,50	64000,00
742,94	64000,00
743,39	64000,00
743,84	64000,00
744,28	64000,00
744,73	64000,00
745,18	64000,00
745,62	64000,00
746,07	64000,00
746,51	64000,00
746,96	64000,00
747,40	64000,00
747,85	64000,00
748,30	64000,00
748,74	64000,00
749,19	64000,00
749,63	64000,00
750,08	64000,00
750,52	64000,00
750,97	64000,00
751,42	64000,00
751,86	64000,00
752,31	64000,00
752,75	64000,00
753,20	64000,00
753,64	64000,00
754,09	64000,00
754,53	64000,00
754,98	64000,00
755,42	64000,00
755,87	64000,00
756,31	64000,00
756,76	64000,00
757,20	64000,00
757,65	64000,00
758,09	64000,00
758,54	64000,00
758,98	64000,00
759,43	64000,00
759,87	64000,00
760,32	64000,00
760,76	64000,00
761,21	64000,00
761,65	64000,00
762,10	64000,00
762,54	64000,00
762,99	64000,00
763,43	64000,00
763,88	64000,00
764,32	64000,00
764,77	64000,00
765,21	64000,00
765,66	64000,00
766,10	64000,00
766,54	64000,00
766,99	64000,00
767,43	64000,00
767,88	64000,00
768,32	64000,00
768,77	64000,00
769,21	64000,00
769,66	64000,00
770,10	64000,00
770,54	64000,00
770,99	64000,00
771,43	64000,00
771,88	64000,00
772,32	64000,00
772,76	64000,00
773,21	64000,00
773,65	64000,00
774,10	64000,00
774,54	64000,00
774,98	64000,00
775,43	64000,00
775,87	64000,00
776,31	64000,00
776,76	64000,00
777,20	64000,00
777,65	64000,00
778,09	64000,00
778,53	64000,00
778,98	64000,00
779,42	64000,00
779,86	64000,00
780,31	64000,00
780,75	64000,00
781,19	64000,00
781,64	64000,00
782,08	64000,00
782,52	64000,00
782,97	64000,00
783,41	64000,00
783,85	64000,00
784,30	64000,00
784,74	64000,00
785,18	64000,00
785,63	64000,00
786,07	64000,00
786,51	64000,00
786,95	64000,00
787,40	64000,00
787,84	64000,00
788,28	64000,00
788,73	64000,00
789,17	64000,00
789,61	64000,00
790,05	64000,00
790,50	64000,00
790,94	64000,00
791,38	64000,00
791,82	64000,00
792,27	64000,00
792,71	64000,00
793,15	64000,00
793,59	64000,00
794,04	64000,00
794,48	64000,00
794,92	64000,00
795,36	64000,00
795,81	64000,00
796,25	64000,00
796,69	64000,00
797,13	64000,00
797,57	64000,00
798,02	64000,00
798,46	64000,00
798,90	64000,00
799,34	64000,00
799,79	64000,00
800,23	64000,00
800,67	64000,00
801,11	64000,00
801,55	64000,00
801,99	64000,00
802,44	64000,00
802,88	64000,00
803,32	64000,00
803,76	64000,00
804,20	64000,00
804,64	64000,00
805,09	64000,00
805,53	64000,00
805,97	64000,00
806,41	64000,00
806,85	64000,00
807,29	64000,00
807,74	64000,00
808,18	64000,00
808,62	64000,00
809,06	64000,00
809,50	64000,00
809,94	64000,00
810,38	64000,00
810,82	64000,00
811,27	64000,00
811,71	64000,00
812,15	64000,00
812,59	64000,00
813,03	64000,00
813,47	64000,00
813,91	64000,00
814,35	64000,00
814,79	64000,00
815,23	64000,00
815,67	64000,00
816,12	64000,00
816,56	64000,00
817,00	64000,00
817,44	64000,00
817,88	64000,00
818,32	64000,00
818,76	64000,00
819,20	64000,00
819,64	64000,00
820,08	64000,00
820,52	64000,00
820,96	64000,00
821,40	64000,00
821,84	64000,00
822,28	64000,00
822,72	64000,00
823,16	64000,00
823,60	64000,00
824,04	64000,00
824,48	64000,00
824,92	64000,00
825,36	64000,00
825,80	64000,00
826,24	64000,00
826,68	64000,00
827,12	64000,00
827,56	64000,00
828,00	64000,00
828,44	64000,00
828,88	64000,00
829,32	64000,00
829,76	64000,00
830,20	64000,00
830,64	64000,00
831,08	64000,00
831,52	64000,00
831,96	64000,00
832,40	64000,00
832,84	64000,00
833,28	64000,00
833,72	64000,00
834,16	64000,00
834,60	64000,00
835,04	64000,00
835,48	64000,00
835,91	64000,00
836,35	64000,00
836,79	64000,00
837,23	64000,00
837,67	64000,00
838,11	64000,00
838,55	64000,00
838,99	64000,00
839,43	64000,00
839,87	64000,00
840,30	64000,00
840,74	64000,00
841,18	64000,00
841,62	64000,00
842,06	64000,00
842,50	64000,00
842,94	64000,00
843,38	64000,00
843,81	64000,00
844,25	64000,00
844,69	64000,00
845,13	64000,00
845,57	64000,00
846,01	64000,00
846,45	64000,00
846,88	64000,00
847,32	64000,00
847,76	64000,00
848,20	64000,00
848,64	64000,00
849,08	64000,00
849,51	64000,00
849,95	64000,00
850,39	64000,00
850,83	64000,00
851,27	64000,00
851,70	64000,00
852,14	64000,00
852,58	64000,00
853,02	64000,00
853,46	64000,00
853,89	64000,00
854,33	64000,00
854,77	64000,00
855,21	64000,00
855,65	64000,00
856,08	64000,00
856,52	64000,00
856,96	64000,00
857,40	64000,00
857,83	64000,00
858,27	64000,00
858,71	64000,00
859,15	64000,00
859,58	64000,00
860,02	64000,00
860,46	64000,00
860,89	64000,00
861,33	64000,00
861,77	64000,00
862,21	64000,00
862,64	64000,00
863,08	64000,00
863,52	64000,00
863,95	64000,00
864,39	64000,00
864,83	64000,00
865,27	64000,00
865,70	64000,00
866,14	64000,00
866,58	64000,00
867,01	64000,00
867,45	64000,00
867,89	64000,00
868,32	64000,00
868,76	64000,00
869,20	64000,00
869,63	64000,00
870,07	64000,00
870,51	64000,00
870,94	64000,00
871,38	64000,00
871,82	64000,00
872,25	64000,00
872,69	64000,00
873,13	64000,00
873,56	64000,00
874,00	64000,00
874,43	64000,00
874,87	64000,00
875,31	64000,00
875,74	64000,00
876,18	64000,00
876,61	64000,00
877,05	64000,00
877,49	64000,00
877,92	64000,00
878,36	64000,00
878,79	64000,00
879,23	64000,00
879,67	64000,00
880,10	64000,00
880,54	64000,00
880,97	64000,00
881,41	64000,00
881,84	64000,00
882,28	64000,00
882,72	64000,00
883,15	64000,00
883,59	64000,00
884,02	64000,00
884,46	64000,00
884,89	64000,00
885,33	64000,00
885,76	64000,00
886,20	64000,00
886,63	64000,00
887,07	64000,00
887,50	64000,00
887,94	64000,00
888,37	64000,00
888,81	64000,00
889,24	64000,00
889,68	64000,00
890,11	64000,00
890,55	64000,00
890,98	64000,00
891,42	64000,00
891,85	64000,00
892,29	64000,00
892,72	64000,00
893,16	64000,00
893,59	64000,00
894,03	64000,00
894,46	64000,00
894,90	64000,00
895,33	64000,00
895,77	64000,00
896,20	64000,00
896,63	64000,00
897,07	64000,00
897,50	64000,00
897,94	64000,00
898,37	64000,00
898,81	64000,00
899,24	64000,00
899,68	64000,00
900,11	64000,00
900,54	64000,00
900,98	64000,00
901,41	64000,00
901,85	64000,00
902,28	64000,00
902,71	64000,00
903,15	64000,00
903,58	64000,00
904,02	64000,00
904,45	64000,00
904,88	64000,00
905,32	64000,00
905,75	64000,00
906,18	64000,00
906,62	64000,00
907,05	64000,00
907,48	64000,00
907,92	64000,00
908,35	64000,00
908,79	64000,00
909,22	64000,00
909,65	64000,00
910,09	64000,00
910,52	64000,00
910,95	64000,00
911,38	64000,00
911,82	64000,00
912,25	64000,00
912,68	64000,00
913,12	64000,00
913,55	64000,00
913,98	64000,00
914,42	64000,00
914,85	64000,00
915,28	64000,00
915,72	64000,00
916,15	64000,00
916,58	64000,00
917,01	64000,00
917,45	64000,00
917,88	64000,00
918,31	64000,00
918,74	64000,00
919,18	64000,00
919,61	64000,00
920,04	64000,00
920,47	64000,00
920,91	64000,00
921,34	64000,00
921,77	64000,00
922,20	64000,00
922,64	64000,00
923,07	64000,00
923,50	64000,00
923,93	64000,00
924,37	64000,00
924,80	64000,00
925,23	64000,00
925,66	64000,00
926,09	64000,00
926,53	64000,00
926,96	64000,00
927,39	64000,00
927,82	64000,00
928,25	64000,00
928,69	64000,00
929,12	64000,00
929,55	64000,00
929,98	64000,00
930,41	64000,00
930,84	64000,00
931,28	64000,00
931,71	64000,00
932,14	64000,00
932,57	64000,00
933,00	60143,00
933,43	59744,00
933,86	57202,00
934,30	57663,00
934,73	58529,00
935,16	55305,00
935,59	55708,00
936,02	55813,00
936,45	56325,00
936,88	56152,00
937,31	59010,00
937,75	58690,00
938,18	59933,00
938,61	61380,00
939,04	60084,00
939,47	58678,00
939,90	56915,00
940,33	56575,00
940,76	52186,00
941,19	52578,00
941,62	50967,00
942,05	50026,00
942,48	49719,00
942,91	49903,00
943,35	50039,00
943,78	50680,00
944,21	51592,00
944,64	53655,00
945,07	53440,00
945,50	54035,00
945,93	54956,00
946,36	56925,00
946,79	57430,00
947,22	58023,00
947,65	56858,00
948,08	55569,00
948,51	56686,00
948,94	56111,00
949,37	57176,00
949,80	55436,00
950,23	54807,00
950,66	54781,00
951,09	54849,00
951,52	53334,00
951,95	55990,00
952,38	56797,00
952,81	61206,00
953,24	60367,00
953,67	60826,00
954,10	61870,00
954,53	62492,00
954,96	62266,00
955,39	64000,00
955,82	63306,00
956,25	63091,00
956,68	64000,00
957,11	61910,00
957,53	61534,00
957,96	60966,00
958,39	59350,00
958,82	58716,00
959,25	59953,00
959,68	60405,00
960,11	61735,00
960,54	63430,00
960,97	64000,00
961,40	64000,00
961,83	64000,00
962,26	64000,00
962,68	64000,00
963,11	64000,00
963,54	64000,00
963,97	64000,00
964,40	64000,00
964,83	64000,00
965,26	64000,00
965,69	64000,00
966,11	64000,00
966,54	64000,00
966,97	64000,00
967,40	64000,00
967,83	64000,00
968,26	64000,00
968,69	64000,00
969,11	64000,00
969,54	64000,00
969,97	64000,00
970,40	64000,00
970,83	64000,00
971,26	64000,00
971,68	64000,00
972,11	64000,00
972,54	64000,00
972,97	64000,00
973,40	64000,00
973,82	64000,00
974,25	64000,00
974,68	64000,00
975,11	64000,00
975,54	64000,00
975,96	64000,00
976,39	64000,00
976,82	64000,00
977,25	64000,00
977,67	64000,00
978,10	64000,00
978,53	64000,00
978,96	64000,00
979,38	64000,00
979,81	64000,00
980,24	64000,00
980,67	64000,00
981,09	64000,00
981,52	64000,00
981,95	64000,00
982,38	64000,00
982,80	64000,00
983,23	64000,00
983,66	64000,00
984,08	64000,00
984,51	64000,00
984,94	64000,00
985,37	64000,00
985,79	64000,00
986,22	64000,00
986,65	64000,00
987,07	64000,00
987,50	64000,00
987,93	64000,00
988,35	64000,00
988,78	64000,00
989,21	64000,00
989,63	64000,00
990,06	64000,00
990,49	64000,00
990,91	64000,00
991,34	64000,00
991,77	64000,00
992,19	64000,00
992,62	64000,00
993,05	64000,00
993,47	64000,00
993,90	64000,00
994,32	64000,00
994,75	64000,00
995,18	64000,00
995,60	64000,00
996,03	64000,00
996,45	64000,00
996,88	64000,00
997,31	64000,00
997,73	64000,00
998,16	64000,00
998,58	64000,00
999,01	64000,00
999,44	64000,00
999,86	64000,00
1000,29	64000,00
1000,71	64000,00
1001,14	64000,00
1001,56	64000,00
1001,99	64000,00
1002,41	64000,00
1002,84	64000,00
1003,27	64000,00
1003,69	64000,00
1004,12	64000,00
1004,54	64000,00
1004,97	64000,00
1005,39	64000,00
1005,82	64000,00
1006,24	64000,00
1006,67	64000,00
1007,09	64000,00
1007,52	64000,00
1007,94	64000,00
1008,37	64000,00
1008,79	64000,00
1009,22	64000,00
1009,64	64000,00
1010,07	64000,00
1010,49	64000,00
1010,92	64000,00
1011,34	64000,00
1011,77	64000,00
1012,19	64000,00
1012,62	64000,00
1013,04	63348,00
1013,46	64000,00
1013,89	60490,00
1014,31	60833,00
1014,74	58973,00
1015,16	59114,00
1015,59	58138,00
1016,01	59159,00
1016,44	58869,00
1016,86	64000,00
1017,28	60210,00
1017,71	58930,00
1018,13	63135,00
1018,56	61832,00
1018,98	61804,00
1019,40	60998,00
1019,83	61727,00
1020,25	62182,00
1020,68	62357,00
1021,10	62858,00
1021,52	62310,00
1021,95	64000,00
1022,37	63104,00
1022,79	62291,00
1023,22	61841,00
1023,64	60766,00
1024,07	60202,00
1024,49	59933,00
1024,91	58220,00
1025,34	58037,00
1025,76	60423,00
1026,18	58544,00
1026,61	58225,00
1027,03	58046,00
1027,45	58324,00
1027,88	58043,00
1028,30	60516,00
1028,72	59317,00
1029,15	59484,00
1029,57	59361,00
1029,99	60467,00
1030,41	57869,00
1030,84	58993,00
1031,26	58755,00
1031,68	57364,00
1032,11	58116,00
1032,53	56048,00
1032,95	55250,00
1033,37	55336,00
1033,80	55114,00
1034,22	52858,00
1034,64	54984,00
1035,06	51839,00
1035,49	51460,00
1035,91	51602,00
1036,33	50178,00
1036,75	51342,00
1037,18	51407,00
1037,60	51110,00
1038,02	51569,00
1038,44	52218,00
1038,87	50393,00
1039,29	50594,00
1039,71	51345,00
1040,13	50841,00
1040,55	52472,00
1040,98	52163,00
1041,40	51498,00
1041,82	51556,00
1042,24	50594,00
1042,66	51208,00
1043,09	49506,00
1043,51	49728,00
1043,93	49105,00
1044,35	48094,00
1044,77	48509,00
1045,20	48770,00
1045,62	46702,00
1046,04	47495,00
1046,46	47375,00
1046,88	45981,00
1047,30	47348,00
1047,72	46635,00
1048,15	46305,00
1048,57	44938,00
1048,99	44461,00
1049,41	44950,00
1049,83	44922,00
1050,25	45412,00
1050,67	44534,00
1051,09	43489,00
1051,52	43350,00
1051,94	41323,00
1052,36	42285,00
1052,78	41200,00
1053,20	41805,00
1053,62	41122,00
1054,04	41604,00
1054,46	41344,00
1054,88	42537,00
1055,30	41408,00
1055,72	40945,00
1056,14	39901,00
1056,57	43097,00
1056,99	38063,00
1057,41	38792,00
1057,83	38739,00
1058,25	37728,00
1058,67	37570,00
1059,09	37100,00
1059,51	38334,00
1059,93	37212,00
1060,35	36594,00
1060,77	37548,00
1061,19	38123,00
1061,61	37044,00
1062,03	36816,00
1062,45	36445,00
1062,87	37472,00
1063,29	37812,00
1063,71	36664,00
1064,13	36286,00
1064,55	35872,00
1064,97	37629,00
1065,39	36993,00
1065,81	36702,00
1066,23	37159,00
1066,65	36655,00
1067,07	38604,00
1067,49	36980,00
1067,91	36398,00
1068,33	36125,00
1068,75	37965,00
1069,17	38383,00
1069,59	38524,00
1070,00	38040,00
1070,42	39590,00
1070,84	39775,00
1071,26	40700,00
1071,68	41275,00
1072,10	43146,00
1072,52	43276,00
1072,94	43808,00
1073,36	44473,00
1073,78	43150,00
1074,20	41809,00
1074,62	40288,00
1075,03	39266,00
1075,45	39164,00
1075,87	40032,00
1076,29	38610,00
1076,71	39376,00
1077,13	39959,00
1077,55	36985,00
1077,97	38072,00
1078,38	37301,00
1078,80	37337,00
1079,22	37444,00
1079,64	36990,00
1080,06	36408,00
1080,48	36996,00
1080,89	36249,00
1081,31	35789,00
1081,73	35514,00
1082,15	35458,00
1082,57	35731,00
1082,99	34726,00
1083,40	33923,00
1083,82	35054,00
1084,24	32801,00
1084,66	32747,00
1085,08	33152,00
1085,49	31344,00
1085,91	32981,00
1086,33	48447,00
1086,75	32790,00
1087,17	31284,00
1087,58	31109,00
1088,00	30996,00
1088,42	31663,00
1088,84	30338,00
1089,25	29231,00
1089,67	29248,00
1090,09	29111,00
1090,51	28268,00
1090,92	28890,00
1091,34	27820,00
1091,76	27920,00
1092,18	27325,00
1092,59	27398,00
1093,01	26968,00
1093,43	26822,00
1093,84	26120,00
1094,26	26351,00
1094,68	26688,00
1095,10	25320,00
1095,51	25967,00
1095,93	25313,00
1096,35	26153,00
1096,76	26142,00
1097,18	25833,00
1097,60	25191,00
1098,01	25016,00
1098,43	24392,00
1098,85	24503,00
1099,26	24186,00
1099,68	24260,00
1100,10	23276,00
1100,51	23562,00
1100,93	23483,00
1101,35	23348,00
1101,76	23553,00
1102,18	30518,00
1102,60	24566,00
1103,01	21464,00
1103,43	23144,00
1103,84	22694,00
1104,26	22234,00
1104,68	22711,00
1105,09	21162,00
1105,51	21535,00
1105,92	23322,00
1106,34	21081,00
1106,76	22554,00
1107,17	22349,00
1107,59	22066,00
1108,00	20336,00
1108,42	21374,00
1108,83	20258,00
1109,25	20884,00
1109,67	20155,00
1110,08	20312,00
1110,50	19721,00
1110,91	20523,00
1111,33	19906,00
1111,74	19712,00
1112,16	20520,00
1112,57	20593,00
1112,99	19478,00
1113,41	19855,00
1113,82	19382,00
1114,24	19712,00
1114,65	18970,00
1115,07	18192,00
1115,48	17487,00
1115,90	1859,00
1116,31	2237,00
1116,73	2194,00
1117,14	2202,00
>>>>>End Processed Spectral Data<<<<<
