SpectraSuite Data File
++++++++++++++++++++++++++++++++++++
Date: Mon Oct 13 13:40:52 EEST 2014
User: OO Maya
Dark Spectrum Present: No
Reference Spectrum Present: No
Number of Sampled Component Spectra: 1
Spectrometers: MAYP11278
Integration Time (usec): 5000000 (MAYP11278)
Spectra Averaged: 10 (MAYP11278)
Boxcar Smoothing: 0 (MAYP11278)
Correct for Electrical Dark: No (MAYP11278)
Strobe/Lamp Enabled: No (MAYP11278)
Correct for Detector Non-linearity: No (MAYP11278)
Correct for Stray Light: No (MAYP11278)
Number of Pixels in Processed Spectrum: 2068
>>>>>Begin Processed Spectral Data<<<<<
188,22	2312,50
188,70	2225,70
189,18	2197,30
189,66	2199,30
190,13	11274,90
190,61	12339,10
191,09	12686,40
191,57	13057,70
192,05	13578,60
192,53	13039,90
193,00	12856,70
193,48	12536,50
193,96	13097,20
194,44	13001,00
194,92	13298,50
195,40	12905,30
195,87	13524,00
196,35	12858,40
196,83	13011,50
197,31	14440,50
197,79	13037,70
198,26	12667,60
198,74	12970,80
199,22	12794,40
199,70	13316,90
200,18	13549,00
200,65	12965,70
201,13	13044,20
201,61	13537,60
202,09	13452,60
202,56	13424,40
203,04	12569,10
203,52	13287,90
204,00	12679,80
204,47	13620,70
204,95	13798,50
205,43	12897,30
205,91	12857,80
206,39	13945,10
206,86	13052,10
207,34	13400,70
207,82	14528,80
208,30	13243,60
208,77	13530,90
209,25	13028,20
209,73	13707,40
210,20	13510,90
210,68	13168,50
211,16	13168,00
211,64	13479,30
212,11	13274,50
212,59	12939,30
213,07	14176,20
213,55	13479,90
214,02	12972,00
214,50	14040,80
214,98	13367,70
215,45	14040,70
215,93	13426,60
216,41	13595,20
216,89	13538,00
217,36	13548,30
217,84	12928,10
218,32	13209,70
218,79	13975,00
219,27	12569,30
219,75	12895,80
220,22	12927,40
220,70	13259,20
221,18	14524,60
221,65	12926,90
222,13	13774,30
222,61	13019,90
223,08	13780,70
223,56	13107,00
224,04	13728,80
224,51	13266,20
224,99	13041,60
225,47	12812,30
225,94	13182,60
226,42	12993,60
226,90	13384,70
227,37	13877,00
227,85	13251,20
228,33	13626,00
228,80	13733,10
229,28	13630,40
229,76	13272,50
230,23	13388,00
230,71	13127,00
231,18	13692,90
231,66	13791,10
232,14	13387,20
232,61	13482,60
233,09	12856,30
233,57	13425,10
234,04	13560,10
234,52	15261,00
234,99	13619,50
235,47	13136,90
235,95	12990,00
236,42	12824,90
236,90	13831,40
237,37	14525,90
237,85	13131,30
238,33	13485,40
238,80	13440,00
239,28	13433,30
239,75	13410,00
240,23	12781,30
240,70	13731,70
241,18	14083,50
241,66	13511,10
242,13	13292,20
242,61	13916,60
243,08	14107,30
243,56	12889,80
244,03	13001,60
244,51	13855,70
244,99	14118,10
245,46	13298,60
245,94	14043,00
246,41	37246,50
246,89	12655,70
247,36	13558,60
247,84	13436,60
248,31	13578,00
248,79	13662,10
249,26	12707,30
249,74	13531,20
250,22	13850,90
250,69	13617,00
251,17	14202,30
251,64	13525,40
252,12	14598,90
252,59	14181,70
253,07	13267,10
253,54	14139,30
254,02	13553,60
254,49	13487,60
254,97	13708,30
255,44	13643,10
255,92	13954,60
256,39	13271,70
256,87	13679,60
257,34	13832,40
257,82	14088,00
258,29	15190,90
258,77	13640,90
259,24	13287,90
259,72	13727,10
260,19	13861,80
260,67	14458,10
261,14	13456,40
261,61	13398,50
262,09	14209,40
262,56	13256,00
263,04	13813,60
263,51	13578,10
263,99	13061,30
264,46	13979,80
264,94	14174,40
265,41	13354,60
265,89	13714,80
266,36	13791,50
266,83	14094,30
267,31	13530,90
267,78	13670,60
268,26	13895,30
268,73	13968,50
269,21	12946,00
269,68	13258,40
270,15	13396,80
270,63	13920,00
271,10	14204,00
271,58	13451,80
272,05	13683,50
272,53	13049,00
273,00	13154,80
273,47	12823,00
273,95	13798,30
274,42	15607,10
274,90	14040,80
275,37	14140,20
275,84	13441,00
276,32	13651,50
276,79	13978,90
277,26	14129,60
277,74	13132,00
278,21	13523,50
278,69	13054,90
279,16	15609,10
279,63	13251,40
280,11	13248,30
280,58	15785,60
281,05	14569,90
281,53	15998,30
282,00	13997,60
282,48	14825,50
282,95	14020,50
283,42	13995,00
283,90	14183,60
284,37	13513,80
284,84	13466,80
285,32	14325,60
285,79	13888,50
286,26	14201,30
286,74	14187,50
287,21	13273,80
287,68	14217,60
288,16	14828,80
288,63	13919,80
289,10	14436,20
289,58	13266,40
290,05	14930,70
290,52	13691,80
291,00	14235,40
291,47	13765,00
291,94	14230,00
292,41	15317,10
292,89	13716,80
293,36	14670,30
293,83	13882,30
294,31	14439,00
294,78	14417,50
295,25	13990,80
295,73	14262,50
296,20	14489,80
296,67	15325,30
297,14	15199,20
297,62	14740,30
298,09	14526,10
298,56	14624,20
299,03	14170,90
299,51	15210,40
299,98	14230,90
300,45	14577,80
300,92	14114,80
301,40	14929,90
301,87	14959,90
302,34	14885,30
302,82	14102,40
303,29	14957,40
303,76	15017,70
304,23	14271,70
304,70	14432,70
305,18	14266,70
305,65	14779,10
306,12	14868,00
306,59	14869,30
307,07	15017,30
307,54	14460,30
308,01	14535,10
308,48	14783,70
308,95	14513,50
309,43	15282,60
309,90	15317,70
310,37	15037,00
310,84	15021,40
311,32	15255,00
311,79	14731,00
312,26	15625,00
312,73	14982,70
313,20	16006,70
313,68	14725,50
314,15	14884,80
314,62	15103,20
315,09	14828,10
315,56	14771,30
316,03	15631,90
316,51	15472,80
316,98	15342,50
317,45	15612,90
317,92	15490,70
318,39	16906,40
318,86	15371,30
319,34	15377,60
319,81	14877,50
320,28	15755,60
320,75	16690,50
321,22	16110,90
321,69	15548,60
322,16	14896,70
322,64	15204,20
323,11	16607,60
323,58	15487,40
324,05	17027,90
324,52	14965,40
324,99	15829,20
325,46	15725,60
325,94	15785,40
326,41	15960,60
326,88	16006,70
327,35	16545,60
327,82	16595,80
328,29	16649,20
328,76	16516,30
329,23	16288,30
329,70	16187,90
330,18	16139,30
330,65	15936,60
331,12	16650,30
331,59	16359,20
332,06	17067,50
332,53	15905,10
333,00	17589,10
333,47	17200,10
333,94	17302,10
334,41	17806,90
334,88	17296,30
335,35	17655,20
335,83	19514,00
336,30	17053,50
336,77	17529,10
337,24	17325,10
337,71	17569,90
338,18	17254,30
338,65	17278,70
339,12	18191,90
339,59	17868,10
340,06	16896,10
340,53	17032,70
341,00	17090,20
341,47	17686,20
341,94	18222,60
342,41	17383,20
342,88	17779,80
343,35	18063,10
343,82	17787,70
344,29	17488,80
344,76	17656,50
345,23	17288,90
345,70	17777,00
346,17	18086,70
346,64	17584,70
347,11	17441,60
347,58	18710,20
348,05	17622,50
348,52	18523,80
348,99	18079,80
349,46	17403,20
349,93	18172,30
350,40	18609,30
350,87	18269,90
351,34	17821,50
351,81	18460,80
352,28	19281,10
352,75	18489,70
353,22	18282,90
353,69	18475,00
354,16	18796,80
354,63	18642,20
355,10	18907,70
355,57	18752,70
356,04	19571,60
356,51	18455,00
356,98	19695,60
357,45	18478,10
357,92	20144,10
358,39	19362,50
358,86	18517,70
359,33	18699,50
359,80	18982,00
360,27	18995,70
360,74	19796,40
361,20	20211,00
361,67	19269,70
362,14	19467,80
362,61	19595,50
363,08	19488,90
363,55	19539,10
364,02	20940,80
364,49	20064,10
364,96	19472,50
365,43	20248,80
365,90	19798,60
366,37	19583,80
366,83	20368,00
367,30	20358,10
367,77	29019,60
368,24	19674,80
368,71	20182,30
369,18	21141,40
369,65	20283,30
370,12	21335,70
370,59	21134,60
371,05	20856,80
371,52	26284,00
371,99	21389,70
372,46	20979,30
372,93	20800,50
373,40	21349,90
373,87	21728,60
374,33	21250,70
374,80	21606,20
375,27	22329,40
375,74	21554,80
376,21	23169,30
376,68	22313,50
377,15	22210,10
377,61	22201,90
378,08	23241,00
378,55	23243,10
379,02	23137,60
379,49	23380,40
379,96	23490,30
380,42	23988,00
380,89	24745,90
381,36	24090,60
381,83	25001,90
382,30	25141,50
382,76	23920,00
383,23	24873,00
383,70	24730,80
384,17	25505,30
384,64	25209,80
385,10	28250,40
385,57	25719,00
386,04	25561,80
386,51	25838,00
386,98	27052,80
387,44	25932,40
387,91	25943,90
388,38	27180,20
388,85	27059,00
389,31	27661,00
389,78	26974,20
390,25	27747,20
390,72	27797,90
391,19	28201,40
391,65	28238,90
392,12	28438,90
392,59	28736,00
393,06	28741,60
393,52	28921,70
393,99	30468,20
394,46	29424,90
394,93	30339,60
395,39	29597,10
395,86	30504,80
396,33	33013,40
396,80	30026,90
397,26	31147,10
397,73	31492,40
398,20	30895,40
398,66	31572,30
399,13	31519,10
399,60	31593,90
400,07	32805,00
400,53	32053,90
401,00	32675,50
401,47	32800,10
401,93	33462,60
402,40	33612,40
402,87	33777,00
403,34	33653,80
403,80	35116,00
404,27	34380,90
404,74	35409,10
405,20	35986,20
405,67	35998,30
406,14	35091,40
406,60	36171,40
407,07	36426,00
407,54	37490,30
408,00	36575,20
408,47	36967,50
408,94	37468,50
409,40	36969,00
409,87	38232,60
410,34	37596,60
410,80	38978,40
411,27	38177,20
411,74	39442,00
412,20	38921,40
412,67	38626,00
413,14	39909,30
413,60	39740,80
414,07	40357,90
414,53	40811,90
415,00	41719,60
415,47	40967,30
415,93	42101,20
416,40	41704,50
416,87	41910,30
417,33	43052,80
417,80	42690,30
418,26	42564,50
418,73	43096,80
419,20	43382,70
419,66	44038,40
420,13	43570,30
420,59	44632,00
421,06	43968,90
421,53	44843,80
421,99	44971,40
422,46	45823,30
422,92	45660,90
423,39	46046,10
423,86	46617,00
424,32	47263,30
424,79	47131,80
425,25	47815,60
425,72	47802,00
426,18	48801,20
426,65	48290,40
427,11	49364,70
427,58	49481,70
428,05	49890,30
428,51	49263,80
428,98	50568,00
429,44	50615,60
429,91	50787,30
430,37	51266,60
430,84	53129,50
431,30	51445,70
431,77	52139,30
432,23	53295,60
432,70	53334,90
433,17	53205,40
433,63	53392,10
434,10	53928,20
434,56	54367,30
435,03	55137,70
435,49	54717,10
435,96	56004,60
436,42	56006,90
436,89	55880,50
437,35	56934,80
437,82	57112,00
438,28	57565,80
438,75	57529,70
439,21	58030,90
439,68	60450,80
440,14	59103,90
440,61	59793,70
441,07	60256,20
441,54	59684,50
442,00	60231,10
442,47	62058,10
442,93	60822,50
443,39	61765,90
443,86	62109,90
444,32	61812,50
444,79	63500,80
445,25	63409,00
445,72	63491,20
446,18	63731,70
446,65	64000,00
447,11	64000,00
447,58	64000,00
448,04	64000,00
448,50	64000,00
448,97	64000,00
449,43	64000,00
449,90	64000,00
450,36	64000,00
450,83	64000,00
451,29	64000,00
451,75	64000,00
452,22	64000,00
452,68	64000,00
453,15	64000,00
453,61	64000,00
454,08	64000,00
454,54	64000,00
455,00	64000,00
455,47	64000,00
455,93	64000,00
456,40	64000,00
456,86	64000,00
457,32	64000,00
457,79	64000,00
458,25	64000,00
458,71	64000,00
459,18	64000,00
459,64	64000,00
460,11	64000,00
460,57	64000,00
461,03	64000,00
461,50	64000,00
461,96	64000,00
462,42	64000,00
462,89	64000,00
463,35	64000,00
463,81	64000,00
464,28	64000,00
464,74	64000,00
465,21	64000,00
465,67	64000,00
466,13	64000,00
466,60	64000,00
467,06	64000,00
467,52	64000,00
467,99	64000,00
468,45	64000,00
468,91	64000,00
469,37	64000,00
469,84	64000,00
470,30	64000,00
470,76	64000,00
471,23	64000,00
471,69	64000,00
472,15	64000,00
472,62	64000,00
473,08	64000,00
473,54	64000,00
474,01	64000,00
474,47	64000,00
474,93	64000,00
475,39	64000,00
475,86	64000,00
476,32	64000,00
476,78	64000,00
477,25	64000,00
477,71	64000,00
478,17	64000,00
478,63	64000,00
479,10	64000,00
479,56	64000,00
480,02	64000,00
480,48	64000,00
480,95	64000,00
481,41	64000,00
481,87	64000,00
482,33	64000,00
482,80	64000,00
483,26	64000,00
483,72	64000,00
484,18	64000,00
484,65	64000,00
485,11	64000,00
485,57	64000,00
486,03	64000,00
486,49	64000,00
486,96	64000,00
487,42	64000,00
487,88	64000,00
488,34	64000,00
488,80	64000,00
489,27	64000,00
489,73	64000,00
490,19	64000,00
490,65	64000,00
491,11	64000,00
491,58	64000,00
492,04	64000,00
492,50	64000,00
492,96	64000,00
493,42	64000,00
493,89	64000,00
494,35	64000,00
494,81	64000,00
495,27	64000,00
495,73	64000,00
496,19	64000,00
496,66	64000,00
497,12	64000,00
497,58	64000,00
498,04	64000,00
498,50	64000,00
498,96	64000,00
499,43	64000,00
499,89	64000,00
500,35	64000,00
500,81	64000,00
501,27	64000,00
501,73	64000,00
502,19	64000,00
502,65	64000,00
503,12	64000,00
503,58	64000,00
504,04	64000,00
504,50	64000,00
504,96	64000,00
505,42	64000,00
505,88	64000,00
506,34	64000,00
506,80	64000,00
507,27	64000,00
507,73	64000,00
508,19	64000,00
508,65	64000,00
509,11	64000,00
509,57	64000,00
510,03	64000,00
510,49	64000,00
510,95	64000,00
511,41	64000,00
511,87	64000,00
512,33	64000,00
512,80	64000,00
513,26	64000,00
513,72	64000,00
514,18	64000,00
514,64	64000,00
515,10	64000,00
515,56	64000,00
516,02	64000,00
516,48	64000,00
516,94	64000,00
517,40	64000,00
517,86	64000,00
518,32	64000,00
518,78	64000,00
519,24	64000,00
519,70	64000,00
520,16	64000,00
520,62	64000,00
521,08	64000,00
521,54	64000,00
522,00	64000,00
522,46	64000,00
522,92	64000,00
523,38	64000,00
523,84	64000,00
524,30	64000,00
524,76	64000,00
525,22	64000,00
525,68	64000,00
526,14	64000,00
526,60	64000,00
527,06	64000,00
527,52	64000,00
527,98	64000,00
528,44	64000,00
528,90	64000,00
529,36	64000,00
529,82	64000,00
530,28	64000,00
530,74	64000,00
531,20	64000,00
531,66	64000,00
532,12	64000,00
532,58	64000,00
533,04	64000,00
533,50	64000,00
533,96	64000,00
534,42	64000,00
534,88	64000,00
535,33	64000,00
535,79	64000,00
536,25	64000,00
536,71	64000,00
537,17	64000,00
537,63	64000,00
538,09	64000,00
538,55	64000,00
539,01	64000,00
539,47	64000,00
539,93	64000,00
540,39	64000,00
540,84	64000,00
541,30	64000,00
541,76	64000,00
542,22	64000,00
542,68	64000,00
543,14	64000,00
543,60	64000,00
544,06	64000,00
544,52	64000,00
544,97	64000,00
545,43	64000,00
545,89	64000,00
546,35	64000,00
546,81	64000,00
547,27	64000,00
547,73	64000,00
548,19	64000,00
548,64	64000,00
549,10	64000,00
549,56	64000,00
550,02	64000,00
550,48	64000,00
550,94	64000,00
551,39	64000,00
551,85	64000,00
552,31	64000,00
552,77	64000,00
553,23	64000,00
553,69	64000,00
554,14	64000,00
554,60	64000,00
555,06	64000,00
555,52	64000,00
555,98	64000,00
556,43	64000,00
556,89	64000,00
557,35	64000,00
557,81	64000,00
558,27	64000,00
558,72	64000,00
559,18	64000,00
559,64	64000,00
560,10	64000,00
560,56	64000,00
561,01	64000,00
561,47	64000,00
561,93	64000,00
562,39	64000,00
562,85	64000,00
563,30	64000,00
563,76	64000,00
564,22	64000,00
564,68	64000,00
565,13	64000,00
565,59	64000,00
566,05	64000,00
566,51	64000,00
566,96	64000,00
567,42	64000,00
567,88	64000,00
568,34	64000,00
568,79	64000,00
569,25	64000,00
569,71	64000,00
570,16	64000,00
570,62	64000,00
571,08	64000,00
571,54	64000,00
571,99	64000,00
572,45	64000,00
572,91	64000,00
573,36	64000,00
573,82	64000,00
574,28	64000,00
574,74	64000,00
575,19	64000,00
575,65	64000,00
576,11	64000,00
576,56	64000,00
577,02	64000,00
577,48	64000,00
577,93	64000,00
578,39	64000,00
578,85	64000,00
579,30	64000,00
579,76	64000,00
580,22	64000,00
580,67	64000,00
581,13	64000,00
581,59	64000,00
582,04	64000,00
582,50	64000,00
582,96	64000,00
583,41	64000,00
583,87	64000,00
584,33	64000,00
584,78	64000,00
585,24	64000,00
585,69	64000,00
586,15	64000,00
586,61	64000,00
587,06	64000,00
587,52	64000,00
587,98	64000,00
588,43	64000,00
588,89	64000,00
589,34	64000,00
589,80	64000,00
590,26	64000,00
590,71	64000,00
591,17	64000,00
591,62	64000,00
592,08	64000,00
592,54	64000,00
592,99	64000,00
593,45	64000,00
593,90	64000,00
594,36	64000,00
594,81	64000,00
595,27	64000,00
595,73	64000,00
596,18	64000,00
596,64	64000,00
597,09	64000,00
597,55	64000,00
598,00	64000,00
598,46	64000,00
598,92	64000,00
599,37	64000,00
599,83	64000,00
600,28	64000,00
600,74	64000,00
601,19	64000,00
601,65	64000,00
602,10	64000,00
602,56	64000,00
603,01	64000,00
603,47	64000,00
603,92	64000,00
604,38	64000,00
604,83	64000,00
605,29	64000,00
605,74	64000,00
606,20	64000,00
606,65	64000,00
607,11	64000,00
607,56	64000,00
608,02	64000,00
608,47	64000,00
608,93	64000,00
609,38	64000,00
609,84	64000,00
610,29	64000,00
610,75	64000,00
611,20	64000,00
611,66	64000,00
612,11	64000,00
612,57	64000,00
613,02	64000,00
613,48	64000,00
613,93	64000,00
614,39	64000,00
614,84	64000,00
615,30	64000,00
615,75	64000,00
616,20	64000,00
616,66	64000,00
617,11	64000,00
617,57	64000,00
618,02	64000,00
618,48	64000,00
618,93	64000,00
619,38	64000,00
619,84	64000,00
620,29	64000,00
620,75	64000,00
621,20	64000,00
621,66	64000,00
622,11	64000,00
622,56	64000,00
623,02	64000,00
623,47	64000,00
623,93	64000,00
624,38	64000,00
624,83	64000,00
625,29	64000,00
625,74	64000,00
626,20	64000,00
626,65	64000,00
627,10	64000,00
627,56	64000,00
628,01	64000,00
628,46	64000,00
628,92	64000,00
629,37	64000,00
629,82	64000,00
630,28	64000,00
630,73	64000,00
631,19	64000,00
631,64	64000,00
632,09	64000,00
632,55	64000,00
633,00	64000,00
633,45	64000,00
633,91	64000,00
634,36	64000,00
634,81	64000,00
635,27	64000,00
635,72	64000,00
636,17	64000,00
636,63	64000,00
637,08	64000,00
637,53	64000,00
637,99	64000,00
638,44	64000,00
638,89	64000,00
639,34	64000,00
639,80	64000,00
640,25	64000,00
640,70	64000,00
641,16	64000,00
641,61	64000,00
642,06	64000,00
642,51	64000,00
642,97	64000,00
643,42	64000,00
643,87	64000,00
644,33	64000,00
644,78	64000,00
645,23	64000,00
645,68	64000,00
646,14	64000,00
646,59	64000,00
647,04	64000,00
647,49	64000,00
647,95	64000,00
648,40	64000,00
648,85	64000,00
649,30	64000,00
649,76	64000,00
650,21	64000,00
650,66	64000,00
651,11	64000,00
651,57	64000,00
652,02	64000,00
652,47	64000,00
652,92	64000,00
653,37	64000,00
653,83	64000,00
654,28	64000,00
654,73	64000,00
655,18	64000,00
655,63	64000,00
656,09	64000,00
656,54	64000,00
656,99	64000,00
657,44	64000,00
657,89	64000,00
658,35	64000,00
658,80	64000,00
659,25	64000,00
659,70	64000,00
660,15	64000,00
660,60	64000,00
661,06	64000,00
661,51	64000,00
661,96	64000,00
662,41	64000,00
662,86	64000,00
663,31	64000,00
663,77	64000,00
664,22	64000,00
664,67	64000,00
665,12	64000,00
665,57	64000,00
666,02	64000,00
666,47	64000,00
666,93	64000,00
667,38	64000,00
667,83	64000,00
668,28	64000,00
668,73	64000,00
669,18	64000,00
669,63	64000,00
670,08	64000,00
670,53	64000,00
670,99	64000,00
671,44	64000,00
671,89	64000,00
672,34	64000,00
672,79	64000,00
673,24	64000,00
673,69	64000,00
674,14	64000,00
674,59	64000,00
675,04	64000,00
675,49	64000,00
675,95	64000,00
676,40	64000,00
676,85	64000,00
677,30	64000,00
677,75	64000,00
678,20	64000,00
678,65	64000,00
679,10	64000,00
679,55	64000,00
680,00	64000,00
680,45	64000,00
680,90	64000,00
681,35	64000,00
681,80	64000,00
682,25	64000,00
682,70	64000,00
683,15	64000,00
683,60	64000,00
684,05	64000,00
684,50	64000,00
684,95	64000,00
685,40	64000,00
685,85	64000,00
686,30	64000,00
686,75	64000,00
687,20	64000,00
687,65	64000,00
688,10	64000,00
688,55	64000,00
689,00	64000,00
689,45	64000,00
689,90	64000,00
690,35	64000,00
690,80	64000,00
691,25	64000,00
691,70	64000,00
692,15	64000,00
692,60	64000,00
693,05	64000,00
693,50	64000,00
693,95	64000,00
694,40	64000,00
694,85	64000,00
695,30	64000,00
695,75	64000,00
696,20	64000,00
696,65	64000,00
697,10	64000,00
697,55	64000,00
698,00	64000,00
698,45	64000,00
698,90	64000,00
699,34	64000,00
699,79	64000,00
700,24	64000,00
700,69	64000,00
701,14	64000,00
701,59	64000,00
702,04	64000,00
702,49	64000,00
702,94	64000,00
703,39	64000,00
703,84	64000,00
704,28	64000,00
704,73	64000,00
705,18	64000,00
705,63	64000,00
706,08	64000,00
706,53	64000,00
706,98	64000,00
707,43	64000,00
707,87	64000,00
708,32	64000,00
708,77	64000,00
709,22	64000,00
709,67	64000,00
710,12	64000,00
710,57	64000,00
711,01	64000,00
711,46	64000,00
711,91	64000,00
712,36	64000,00
712,81	64000,00
713,26	64000,00
713,71	64000,00
714,15	64000,00
714,60	64000,00
715,05	64000,00
715,50	64000,00
715,95	64000,00
716,39	64000,00
716,84	64000,00
717,29	64000,00
717,74	64000,00
718,19	64000,00
718,63	64000,00
719,08	64000,00
719,53	64000,00
719,98	64000,00
720,43	64000,00
720,87	64000,00
721,32	64000,00
721,77	64000,00
722,22	64000,00
722,67	64000,00
723,11	64000,00
723,56	64000,00
724,01	64000,00
724,46	64000,00
724,90	64000,00
725,35	64000,00
725,80	64000,00
726,25	64000,00
726,69	64000,00
727,14	64000,00
727,59	64000,00
728,04	64000,00
728,48	64000,00
728,93	64000,00
729,38	64000,00
729,83	64000,00
730,27	64000,00
730,72	64000,00
731,17	64000,00
731,61	64000,00
732,06	64000,00
732,51	64000,00
732,96	64000,00
733,40	64000,00
733,85	64000,00
734,30	64000,00
734,74	64000,00
735,19	64000,00
735,64	64000,00
736,09	64000,00
736,53	64000,00
736,98	64000,00
737,43	64000,00
737,87	64000,00
738,32	64000,00
738,77	64000,00
739,21	64000,00
739,66	64000,00
740,11	64000,00
740,55	64000,00
741,00	64000,00
741,45	64000,00
741,89	64000,00
742,34	64000,00
742,79	64000,00
743,23	64000,00
743,68	64000,00
744,12	64000,00
744,57	64000,00
745,02	64000,00
745,46	64000,00
745,91	64000,00
746,36	64000,00
746,80	64000,00
747,25	64000,00
747,69	64000,00
748,14	64000,00
748,59	64000,00
749,03	64000,00
749,48	64000,00
749,92	64000,00
750,37	64000,00
750,82	64000,00
751,26	64000,00
751,71	64000,00
752,15	64000,00
752,60	64000,00
753,05	64000,00
753,49	64000,00
753,94	64000,00
754,38	64000,00
754,83	64000,00
755,27	64000,00
755,72	64000,00
756,17	64000,00
756,61	64000,00
757,06	64000,00
757,50	64000,00
757,95	64000,00
758,39	64000,00
758,84	64000,00
759,28	64000,00
759,73	64000,00
760,17	64000,00
760,62	64000,00
761,07	64000,00
761,51	64000,00
761,96	64000,00
762,40	64000,00
762,85	64000,00
763,29	64000,00
763,74	64000,00
764,18	64000,00
764,63	64000,00
765,07	64000,00
765,52	64000,00
765,96	64000,00
766,41	64000,00
766,85	64000,00
767,30	64000,00
767,74	64000,00
768,19	64000,00
768,63	64000,00
769,07	64000,00
769,52	64000,00
769,96	64000,00
770,41	64000,00
770,85	64000,00
771,30	64000,00
771,74	64000,00
772,19	64000,00
772,63	64000,00
773,08	64000,00
773,52	64000,00
773,97	64000,00
774,41	64000,00
774,85	64000,00
775,30	64000,00
775,74	64000,00
776,19	64000,00
776,63	64000,00
777,08	64000,00
777,52	64000,00
777,96	64000,00
778,41	64000,00
778,85	64000,00
779,30	64000,00
779,74	64000,00
780,18	64000,00
780,63	64000,00
781,07	64000,00
781,52	64000,00
781,96	64000,00
782,40	64000,00
782,85	64000,00
783,29	64000,00
783,74	64000,00
784,18	64000,00
784,62	64000,00
785,07	64000,00
785,51	64000,00
785,95	64000,00
786,40	64000,00
786,84	64000,00
787,28	64000,00
787,73	64000,00
788,17	64000,00
788,61	64000,00
789,06	64000,00
789,50	64000,00
789,94	64000,00
790,39	64000,00
790,83	64000,00
791,27	64000,00
791,72	64000,00
792,16	64000,00
792,60	64000,00
793,05	64000,00
793,49	64000,00
793,93	64000,00
794,38	64000,00
794,82	64000,00
795,26	64000,00
795,71	64000,00
796,15	64000,00
796,59	64000,00
797,03	64000,00
797,48	64000,00
797,92	64000,00
798,36	64000,00
798,81	64000,00
799,25	64000,00
799,69	64000,00
800,13	64000,00
800,58	64000,00
801,02	64000,00
801,46	64000,00
801,90	64000,00
802,35	64000,00
802,79	64000,00
803,23	64000,00
803,67	64000,00
804,12	64000,00
804,56	64000,00
805,00	64000,00
805,44	64000,00
805,89	64000,00
806,33	64000,00
806,77	64000,00
807,21	64000,00
807,66	64000,00
808,10	64000,00
808,54	64000,00
808,98	64000,00
809,42	64000,00
809,87	64000,00
810,31	64000,00
810,75	64000,00
811,19	64000,00
811,63	64000,00
812,08	64000,00
812,52	64000,00
812,96	64000,00
813,40	64000,00
813,84	64000,00
814,28	64000,00
814,73	64000,00
815,17	64000,00
815,61	64000,00
816,05	64000,00
816,49	64000,00
816,93	64000,00
817,38	64000,00
817,82	64000,00
818,26	64000,00
818,70	64000,00
819,14	64000,00
819,58	64000,00
820,03	64000,00
820,47	64000,00
820,91	64000,00
821,35	64000,00
821,79	64000,00
822,23	64000,00
822,67	64000,00
823,11	64000,00
823,55	64000,00
824,00	64000,00
824,44	64000,00
824,88	64000,00
825,32	64000,00
825,76	64000,00
826,20	64000,00
826,64	64000,00
827,08	64000,00
827,52	64000,00
827,96	64000,00
828,41	64000,00
828,85	64000,00
829,29	64000,00
829,73	64000,00
830,17	64000,00
830,61	64000,00
831,05	64000,00
831,49	64000,00
831,93	64000,00
832,37	64000,00
832,81	64000,00
833,25	64000,00
833,69	64000,00
834,13	64000,00
834,57	64000,00
835,01	64000,00
835,45	64000,00
835,89	64000,00
836,33	64000,00
836,77	64000,00
837,22	64000,00
837,66	64000,00
838,10	64000,00
838,54	64000,00
838,98	64000,00
839,42	64000,00
839,86	64000,00
840,30	64000,00
840,74	64000,00
841,18	64000,00
841,62	64000,00
842,06	64000,00
842,50	64000,00
842,94	64000,00
843,37	64000,00
843,81	64000,00
844,25	64000,00
844,69	64000,00
845,13	64000,00
845,57	64000,00
846,01	64000,00
846,45	64000,00
846,89	64000,00
847,33	64000,00
847,77	64000,00
848,21	64000,00
848,65	64000,00
849,09	64000,00
849,53	64000,00
849,97	64000,00
850,41	64000,00
850,85	64000,00
851,29	64000,00
851,73	64000,00
852,16	64000,00
852,60	64000,00
853,04	64000,00
853,48	64000,00
853,92	64000,00
854,36	64000,00
854,80	64000,00
855,24	64000,00
855,68	64000,00
856,12	64000,00
856,55	64000,00
856,99	64000,00
857,43	64000,00
857,87	64000,00
858,31	64000,00
858,75	64000,00
859,19	64000,00
859,63	64000,00
860,06	64000,00
860,50	64000,00
860,94	64000,00
861,38	64000,00
861,82	64000,00
862,26	64000,00
862,70	64000,00
863,13	64000,00
863,57	64000,00
864,01	64000,00
864,45	64000,00
864,89	64000,00
865,33	64000,00
865,76	64000,00
866,20	64000,00
866,64	64000,00
867,08	64000,00
867,52	64000,00
867,96	64000,00
868,39	64000,00
868,83	64000,00
869,27	64000,00
869,71	64000,00
870,15	64000,00
870,58	64000,00
871,02	64000,00
871,46	64000,00
871,90	64000,00
872,34	64000,00
872,77	64000,00
873,21	64000,00
873,65	64000,00
874,09	64000,00
874,52	64000,00
874,96	64000,00
875,40	64000,00
875,84	64000,00
876,27	64000,00
876,71	64000,00
877,15	64000,00
877,59	64000,00
878,02	64000,00
878,46	64000,00
878,90	64000,00
879,34	64000,00
879,77	64000,00
880,21	64000,00
880,65	64000,00
881,09	64000,00
881,52	64000,00
881,96	64000,00
882,40	64000,00
882,83	64000,00
883,27	64000,00
883,71	64000,00
884,14	64000,00
884,58	64000,00
885,02	64000,00
885,46	64000,00
885,89	64000,00
886,33	64000,00
886,77	64000,00
887,20	64000,00
887,64	64000,00
888,08	64000,00
888,51	64000,00
888,95	64000,00
889,39	64000,00
889,82	64000,00
890,26	64000,00
890,70	64000,00
891,13	64000,00
891,57	64000,00
892,01	64000,00
892,44	64000,00
892,88	64000,00
893,31	64000,00
893,75	64000,00
894,19	64000,00
894,62	64000,00
895,06	64000,00
895,50	64000,00
895,93	64000,00
896,37	64000,00
896,80	64000,00
897,24	64000,00
897,68	64000,00
898,11	64000,00
898,55	64000,00
898,98	64000,00
899,42	64000,00
899,86	64000,00
900,29	64000,00
900,73	64000,00
901,16	64000,00
901,60	64000,00
902,04	64000,00
902,47	64000,00
902,91	64000,00
903,34	64000,00
903,78	64000,00
904,21	64000,00
904,65	64000,00
905,09	64000,00
905,52	64000,00
905,96	64000,00
906,39	64000,00
906,83	64000,00
907,26	64000,00
907,70	64000,00
908,13	64000,00
908,57	64000,00
909,00	64000,00
909,44	64000,00
909,87	64000,00
910,31	64000,00
910,74	64000,00
911,18	64000,00
911,62	64000,00
912,05	64000,00
912,49	64000,00
912,92	64000,00
913,36	64000,00
913,79	64000,00
914,22	64000,00
914,66	64000,00
915,09	64000,00
915,53	64000,00
915,96	64000,00
916,40	64000,00
916,83	64000,00
917,27	64000,00
917,70	64000,00
918,14	64000,00
918,57	64000,00
919,01	64000,00
919,44	64000,00
919,88	64000,00
920,31	64000,00
920,75	64000,00
921,18	64000,00
921,61	64000,00
922,05	64000,00
922,48	64000,00
922,92	64000,00
923,35	64000,00
923,79	64000,00
924,22	64000,00
924,65	64000,00
925,09	64000,00
925,52	64000,00
925,96	64000,00
926,39	64000,00
926,82	64000,00
927,26	64000,00
927,69	64000,00
928,13	64000,00
928,56	64000,00
928,99	64000,00
929,43	64000,00
929,86	64000,00
930,30	64000,00
930,73	64000,00
931,16	64000,00
931,60	64000,00
932,03	64000,00
932,46	64000,00
932,90	64000,00
933,33	64000,00
933,76	64000,00
934,20	64000,00
934,63	64000,00
935,07	64000,00
935,50	64000,00
935,93	64000,00
936,37	64000,00
936,80	64000,00
937,23	64000,00
937,67	64000,00
938,10	64000,00
938,53	64000,00
938,96	64000,00
939,40	64000,00
939,83	64000,00
940,26	64000,00
940,70	64000,00
941,13	64000,00
941,56	64000,00
942,00	64000,00
942,43	64000,00
942,86	64000,00
943,29	64000,00
943,73	64000,00
944,16	64000,00
944,59	64000,00
945,03	64000,00
945,46	64000,00
945,89	64000,00
946,32	64000,00
946,76	64000,00
947,19	64000,00
947,62	64000,00
948,05	64000,00
948,49	64000,00
948,92	64000,00
949,35	64000,00
949,78	64000,00
950,22	64000,00
950,65	64000,00
951,08	64000,00
951,51	64000,00
951,95	64000,00
952,38	64000,00
952,81	64000,00
953,24	64000,00
953,67	64000,00
954,11	64000,00
954,54	64000,00
954,97	64000,00
955,40	64000,00
955,83	64000,00
956,27	64000,00
956,70	64000,00
957,13	64000,00
957,56	64000,00
957,99	64000,00
958,43	64000,00
958,86	64000,00
959,29	64000,00
959,72	64000,00
960,15	64000,00
960,58	64000,00
961,02	64000,00
961,45	64000,00
961,88	64000,00
962,31	64000,00
962,74	64000,00
963,17	64000,00
963,61	64000,00
964,04	64000,00
964,47	64000,00
964,90	64000,00
965,33	64000,00
965,76	64000,00
966,19	64000,00
966,62	64000,00
967,06	64000,00
967,49	64000,00
967,92	64000,00
968,35	64000,00
968,78	64000,00
969,21	64000,00
969,64	64000,00
970,07	64000,00
970,50	64000,00
970,93	64000,00
971,37	64000,00
971,80	64000,00
972,23	64000,00
972,66	64000,00
973,09	64000,00
973,52	64000,00
973,95	64000,00
974,38	64000,00
974,81	64000,00
975,24	64000,00
975,67	64000,00
976,10	64000,00
976,53	64000,00
976,96	64000,00
977,39	64000,00
977,82	64000,00
978,26	64000,00
978,69	64000,00
979,12	64000,00
979,55	64000,00
979,98	64000,00
980,41	64000,00
980,84	64000,00
981,27	64000,00
981,70	64000,00
982,13	64000,00
982,56	64000,00
982,99	64000,00
983,42	64000,00
983,85	64000,00
984,28	64000,00
984,71	64000,00
985,14	64000,00
985,57	64000,00
986,00	64000,00
986,43	64000,00
986,86	64000,00
987,29	64000,00
987,72	64000,00
988,15	64000,00
988,57	64000,00
989,00	64000,00
989,43	64000,00
989,86	64000,00
990,29	64000,00
990,72	64000,00
991,15	64000,00
991,58	64000,00
992,01	64000,00
992,44	64000,00
992,87	64000,00
993,30	64000,00
993,73	64000,00
994,16	64000,00
994,59	64000,00
995,02	64000,00
995,44	64000,00
995,87	64000,00
996,30	64000,00
996,73	64000,00
997,16	64000,00
997,59	64000,00
998,02	64000,00
998,45	64000,00
998,88	64000,00
999,31	64000,00
999,73	64000,00
1000,16	64000,00
1000,59	64000,00
1001,02	64000,00
1001,45	64000,00
1001,88	64000,00
1002,31	64000,00
1002,74	64000,00
1003,16	64000,00
1003,59	64000,00
1004,02	64000,00
1004,45	64000,00
1004,88	64000,00
1005,31	64000,00
1005,73	64000,00
1006,16	64000,00
1006,59	64000,00
1007,02	64000,00
1007,45	64000,00
1007,88	64000,00
1008,30	64000,00
1008,73	64000,00
1009,16	64000,00
1009,59	64000,00
1010,02	64000,00
1010,44	64000,00
1010,87	64000,00
1011,30	64000,00
1011,73	64000,00
1012,16	64000,00
1012,58	64000,00
1013,01	64000,00
1013,44	64000,00
1013,87	64000,00
1014,30	64000,00
1014,72	64000,00
1015,15	64000,00
1015,58	64000,00
1016,01	64000,00
1016,43	64000,00
1016,86	64000,00
1017,29	64000,00
1017,72	64000,00
1018,14	64000,00
1018,57	64000,00
1019,00	64000,00
1019,43	64000,00
1019,85	64000,00
1020,28	64000,00
1020,71	64000,00
1021,14	64000,00
1021,56	64000,00
1021,99	64000,00
1022,42	64000,00
1022,84	64000,00
1023,27	64000,00
1023,70	64000,00
1024,13	64000,00
1024,55	64000,00
1024,98	64000,00
1025,41	64000,00
1025,83	64000,00
1026,26	64000,00
1026,69	64000,00
1027,11	64000,00
1027,54	64000,00
1027,97	64000,00
1028,39	64000,00
1028,82	64000,00
1029,25	64000,00
1029,67	64000,00
1030,10	64000,00
1030,53	64000,00
1030,95	64000,00
1031,38	64000,00
1031,81	64000,00
1032,23	64000,00
1032,66	64000,00
1033,09	64000,00
1033,51	64000,00
1033,94	64000,00
1034,37	64000,00
1034,79	64000,00
1035,22	64000,00
1035,64	64000,00
1036,07	64000,00
1036,50	64000,00
1036,92	64000,00
1037,35	64000,00
1037,77	64000,00
1038,20	64000,00
1038,63	64000,00
1039,05	64000,00
1039,48	64000,00
1039,90	64000,00
1040,33	64000,00
1040,76	64000,00
1041,18	64000,00
1041,61	64000,00
1042,03	64000,00
1042,46	64000,00
1042,88	64000,00
1043,31	64000,00
1043,74	64000,00
1044,16	64000,00
1044,59	64000,00
1045,01	64000,00
1045,44	64000,00
1045,86	64000,00
1046,29	64000,00
1046,71	64000,00
1047,14	64000,00
1047,56	64000,00
1047,99	64000,00
1048,42	64000,00
1048,84	64000,00
1049,27	64000,00
1049,69	64000,00
1050,12	64000,00
1050,54	64000,00
1050,97	64000,00
1051,39	64000,00
1051,82	64000,00
1052,24	64000,00
1052,67	64000,00
1053,09	64000,00
1053,52	64000,00
1053,94	64000,00
1054,37	64000,00
1054,79	64000,00
1055,22	64000,00
1055,64	64000,00
1056,06	64000,00
1056,49	64000,00
1056,91	64000,00
1057,34	64000,00
1057,76	64000,00
1058,19	64000,00
1058,61	64000,00
1059,04	64000,00
1059,46	64000,00
1059,89	64000,00
1060,31	64000,00
1060,73	64000,00
1061,16	64000,00
1061,58	64000,00
1062,01	64000,00
1062,43	64000,00
1062,86	64000,00
1063,28	64000,00
1063,70	64000,00
1064,13	64000,00
1064,55	64000,00
1064,98	64000,00
1065,40	64000,00
1065,82	64000,00
1066,25	64000,00
1066,67	64000,00
1067,10	64000,00
1067,52	64000,00
1067,94	64000,00
1068,37	64000,00
1068,79	64000,00
1069,21	64000,00
1069,64	64000,00
1070,06	64000,00
1070,48	64000,00
1070,91	64000,00
1071,33	64000,00
1071,76	64000,00
1072,18	64000,00
1072,60	64000,00
1073,03	64000,00
1073,45	64000,00
1073,87	64000,00
1074,30	64000,00
1074,72	64000,00
1075,14	64000,00
1075,57	64000,00
1075,99	64000,00
1076,41	64000,00
1076,84	64000,00
1077,26	64000,00
1077,68	64000,00
1078,10	64000,00
1078,53	64000,00
1078,95	64000,00
1079,37	62882,30
1079,80	62700,50
1080,22	61529,80
1080,64	60786,20
1081,06	60220,40
1081,49	59272,60
1081,91	58491,00
1082,33	58100,80
1082,76	57199,90
1083,18	56659,50
1083,60	56148,40
1084,02	55795,60
1084,45	55767,00
1084,87	54924,20
1085,29	54482,10
1085,71	54979,00
1086,14	53731,80
1086,56	53671,20
1086,98	53726,80
1087,40	52850,10
1087,83	53592,30
1088,25	63836,50
1088,67	53180,70
1089,09	52079,70
1089,51	51783,90
1089,94	51320,30
1090,36	51486,80
1090,78	50432,40
1091,20	49369,80
1091,62	48822,70
1092,05	48186,80
1092,47	47204,40
1092,89	46802,30
1093,31	45958,40
1093,73	45681,80
1094,16	44887,60
1094,58	44464,80
1095,00	43989,90
1095,42	43582,00
1095,84	43007,10
1096,26	42958,80
1096,69	42734,90
1097,11	41832,40
1097,53	42013,60
1097,95	41498,90
1098,37	41887,40
1098,79	41691,10
1099,22	41270,60
1099,64	40734,30
1100,06	40405,20
1100,48	39752,20
1100,90	39410,60
1101,32	38661,70
1101,74	38120,60
1102,16	36913,10
1102,59	36474,80
1103,01	36069,10
1103,43	35640,60
1103,85	35400,80
1104,27	39506,80
1104,69	35490,90
1105,11	33562,40
1105,53	34467,70
1105,95	34150,20
1106,38	33695,60
1106,80	33690,30
1107,22	32579,90
1107,64	32454,10
1108,06	33090,80
1108,48	31427,20
1108,90	31723,10
1109,32	30997,90
1109,74	30431,40
1110,16	29031,80
1110,58	29182,20
1111,00	28439,40
1111,42	28622,50
1111,84	28051,10
1112,26	28092,60
1112,68	27604,40
1113,11	27789,00
1113,53	26817,30
1113,95	25828,20
1114,37	25473,40
1114,79	25035,60
1115,21	23958,40
1115,63	24098,60
1116,05	23479,90
1116,47	22102,90
1116,89	20788,60
1117,31	19140,30
1117,73	18459,80
1118,15	1835,70
1118,57	2237,50
1118,99	2199,00
1119,41	2198,60
>>>>>End Processed Spectral Data<<<<<
