SpectraSuite Data File
++++++++++++++++++++++++++++++++++++
Date: Tue Oct 14 10:26:30 EEST 2014
User: OO Maya
Dark Spectrum Present: No
Reference Spectrum Present: No
Number of Sampled Component Spectra: 1
Spectrometers: MAYP11278
Integration Time (usec): 5000000 (MAYP11278)
Spectra Averaged: 10 (MAYP11278)
Boxcar Smoothing: 0 (MAYP11278)
Correct for Electrical Dark: No (MAYP11278)
Strobe/Lamp Enabled: No (MAYP11278)
Correct for Detector Non-linearity: No (MAYP11278)
Correct for Stray Light: No (MAYP11278)
Number of Pixels in Processed Spectrum: 2068
>>>>>Begin Processed Spectral Data<<<<<
188,14	2315,50
188,62	2228,70
189,09	2198,80
189,57	2200,80
190,05	11217,60
190,53	12235,60
191,01	12743,50
191,49	13041,70
191,97	13665,80
192,44	13136,30
192,92	12896,90
193,40	12646,80
193,88	13148,70
194,36	13063,20
194,84	13403,40
195,31	12995,00
195,79	13609,20
196,27	12975,10
196,75	13096,10
197,23	14600,90
197,70	13113,60
198,18	12753,50
198,66	13073,30
199,14	12781,40
199,62	13417,50
200,09	13640,80
200,57	13042,40
201,05	13096,00
201,53	13602,30
202,01	13529,50
202,48	13472,40
202,96	12661,30
203,44	13384,20
203,92	12809,90
204,40	13664,80
204,87	13853,90
205,35	12931,10
205,83	12930,10
206,31	13968,10
206,78	13038,80
207,26	13429,30
207,74	14590,00
208,22	13278,40
208,69	13626,90
209,17	13083,50
209,65	13704,60
210,13	13587,00
210,60	13234,50
211,08	13231,40
211,56	13571,80
212,04	13261,60
212,51	12847,70
212,99	14219,30
213,47	13562,20
213,95	13028,80
214,42	14115,60
214,90	13427,40
215,38	14038,80
215,85	13478,80
216,33	13617,70
216,81	13605,90
217,29	13614,60
217,76	12965,90
218,24	13298,10
218,72	14036,80
219,19	12608,50
219,67	12924,00
220,15	13008,00
220,62	13247,90
221,10	14577,70
221,58	13046,20
222,05	13821,50
222,53	13071,00
223,01	13820,10
223,49	13168,30
223,96	13795,70
224,44	13278,40
224,92	13115,50
225,39	12887,80
225,87	13256,40
226,35	13014,10
226,82	13354,60
227,30	13958,30
227,77	13314,60
228,25	13683,20
228,73	13773,00
229,20	13708,30
229,68	13286,90
230,16	13407,70
230,63	13158,80
231,11	13757,20
231,59	13821,10
232,06	13432,60
232,54	13517,00
233,02	12925,00
233,49	13438,20
233,97	13558,40
234,44	15322,10
234,92	13632,60
235,40	13115,00
235,87	12994,10
236,35	12826,30
236,82	13988,80
237,30	14580,90
237,78	13162,90
238,25	13500,10
238,73	13525,20
239,20	13493,50
239,68	13344,10
240,16	12851,40
240,63	13799,20
241,11	14211,70
241,58	13565,00
242,06	13348,60
242,53	13933,60
243,01	14037,60
243,49	12923,30
243,96	13073,00
244,44	13933,40
244,91	14149,00
245,39	13313,10
245,86	14100,80
246,34	38714,00
246,82	12661,60
247,29	13627,90
247,77	13476,50
248,24	13655,90
248,72	13684,20
249,19	12727,20
249,67	13506,80
250,14	13897,90
250,62	13651,40
251,09	14238,50
251,57	13534,70
252,04	14598,60
252,52	14243,90
253,00	13282,40
253,47	14161,40
253,95	13573,80
254,42	13494,00
254,90	13698,10
255,37	13683,60
255,85	14021,70
256,32	13283,20
256,80	13672,10
257,27	13781,70
257,75	14046,40
258,22	15216,60
258,70	13672,80
259,17	13297,00
259,65	13715,80
260,12	13883,00
260,59	14429,30
261,07	13457,90
261,54	13381,20
262,02	14166,40
262,49	13300,70
262,97	13796,40
263,44	13573,20
263,92	12989,50
264,39	14027,00
264,87	14174,60
265,34	13384,40
265,82	13673,20
266,29	13780,10
266,76	14003,50
267,24	13474,60
267,71	13616,80
268,19	13823,40
268,66	13903,60
269,14	12911,20
269,61	13250,30
270,09	13300,80
270,56	13865,70
271,03	14190,00
271,51	13430,50
271,98	13620,40
272,46	12996,20
272,93	13070,30
273,40	12766,00
273,88	13707,90
274,35	15560,70
274,83	13959,50
275,30	14021,40
275,78	13337,80
276,25	13584,60
276,72	13930,40
277,20	13995,40
277,67	13015,50
278,14	13423,60
278,62	12934,00
279,09	15526,60
279,57	13197,10
280,04	13131,00
280,51	15698,90
280,99	14379,60
281,46	15796,90
281,93	13766,30
282,41	14618,10
282,88	13773,70
283,36	13808,10
283,83	14000,20
284,30	13353,50
284,78	13248,50
285,25	14134,70
285,72	13692,70
286,20	13892,00
286,67	13867,90
287,14	13018,70
287,62	13952,20
288,09	14507,20
288,56	13651,80
289,04	14185,20
289,51	12958,70
289,98	14599,30
290,46	13383,40
290,93	13921,10
291,40	13433,60
291,88	13902,80
292,35	14943,80
292,82	13402,00
293,29	14307,20
293,77	13439,80
294,24	14029,70
294,71	14002,40
295,19	13510,00
295,66	13853,00
296,13	13980,30
296,61	14874,20
297,08	14730,10
297,55	14197,50
298,02	14040,90
298,50	14022,80
298,97	13539,00
299,44	14643,40
299,91	13642,20
300,39	14013,90
300,86	13519,60
301,33	14311,60
301,81	14338,30
302,28	14245,40
302,75	13314,70
303,22	14230,80
303,70	14340,80
304,17	13613,60
304,64	13685,20
305,11	13483,50
305,58	14009,20
306,06	14091,30
306,53	13983,20
307,00	14234,50
307,47	13556,50
307,95	13598,80
308,42	13891,00
308,89	13579,80
309,36	14334,10
309,83	14389,80
310,31	14071,10
310,78	14001,10
311,25	14180,50
311,72	13687,10
312,20	14559,10
312,67	13863,00
313,14	14890,80
313,61	13582,80
314,08	13711,00
314,56	13948,40
315,03	13600,70
315,50	13536,40
315,97	14405,70
316,44	14195,90
316,91	14062,80
317,39	14297,90
317,86	14022,90
318,33	15501,00
318,80	13910,00
319,27	13920,40
319,74	13355,80
320,22	14262,40
320,69	15025,90
321,16	14505,20
321,63	13901,20
322,10	13287,40
322,57	13559,50
323,04	14988,20
323,52	13887,80
323,99	15420,70
324,46	13318,40
324,93	14151,30
325,40	14015,60
325,87	14030,90
326,34	14089,90
326,82	14049,60
327,29	14540,40
327,76	14508,50
328,23	14493,90
328,70	14315,00
329,17	14080,90
329,64	14005,70
330,11	14047,70
330,58	13824,20
331,05	14577,50
331,53	14336,20
332,00	15047,50
332,47	13858,90
332,94	15403,20
333,41	14885,60
333,88	14861,70
334,35	15229,70
334,82	14570,40
335,29	14757,10
335,76	16432,70
336,23	13877,70
336,70	14385,10
337,18	14203,80
337,65	14577,60
338,12	14184,20
338,59	14163,30
339,06	15187,50
339,53	14715,60
340,00	13702,60
340,47	13775,30
340,94	13771,00
341,41	14339,30
341,88	14767,70
342,35	13937,10
342,82	14250,40
343,29	14489,90
343,76	14219,80
344,23	13874,20
344,70	14035,10
345,17	13581,50
345,64	13948,30
346,11	14222,50
346,58	13669,40
347,05	13521,20
347,52	14710,70
347,99	13552,00
348,46	14434,70
348,93	13910,80
349,40	13208,30
349,87	13924,90
350,34	14306,10
350,81	13891,60
351,28	13394,20
351,75	14028,70
352,22	14805,00
352,69	13885,30
353,16	13650,70
353,63	13825,90
354,10	14143,90
354,57	13858,70
355,04	14130,60
355,51	13923,20
355,98	14659,70
356,45	13417,00
356,92	14722,90
357,39	13378,00
357,86	15037,90
358,33	14229,20
358,80	13228,00
359,27	13383,60
359,74	13574,50
360,21	13590,30
360,68	14318,20
361,14	14651,80
361,61	13663,70
362,08	13740,40
362,55	13907,20
363,02	13691,70
363,49	13741,40
363,96	15115,40
364,43	14101,20
364,90	13494,50
365,37	14125,20
365,84	13665,10
366,31	13340,60
366,77	14029,90
367,24	13927,30
367,71	21724,40
368,18	13030,80
368,65	13473,50
369,12	14377,00
369,59	13356,50
370,06	14385,70
370,53	14011,20
370,99	13661,40
371,46	19027,50
371,93	13971,70
372,40	13489,10
372,87	13121,10
373,34	13534,10
373,81	13929,40
374,27	13217,60
374,74	13400,30
375,21	14011,80
375,68	13118,30
376,15	14682,10
376,62	13677,60
377,09	13341,80
377,55	13300,40
378,02	14091,20
378,49	13982,80
378,96	13744,20
379,43	13790,10
379,90	13756,10
380,36	14098,10
380,83	14661,10
381,30	13854,00
381,77	14650,30
382,24	14581,60
382,71	13140,40
383,17	13977,80
383,64	13649,40
384,11	14357,70
384,58	13799,10
385,05	16723,20
385,51	13804,80
385,98	13592,10
386,45	13687,10
386,92	14740,50
387,39	13374,00
387,85	13164,90
388,32	14313,30
388,79	13920,70
389,26	14353,00
389,72	13389,40
390,19	14044,40
390,66	13811,90
391,13	14035,70
391,59	13886,40
392,06	13857,40
392,53	13956,60
393,00	13663,70
393,46	13614,10
393,93	15086,40
394,40	13766,40
394,87	14384,50
395,33	13386,80
395,80	14140,80
396,27	16489,80
396,74	13063,90
397,20	14105,40
397,67	14200,50
398,14	13261,50
398,61	13736,50
399,07	13510,10
399,54	13267,80
400,01	14327,50
400,47	13280,30
400,94	13734,00
401,41	13580,30
401,88	14104,00
402,34	14129,40
402,81	14184,10
403,28	14040,80
403,74	15775,60
404,21	15311,80
404,68	16996,70
405,14	18326,60
405,61	19120,40
406,08	19238,80
406,54	21550,70
407,01	22895,90
407,48	25162,90
407,95	25372,50
408,41	26862,00
408,88	28362,40
409,35	28726,60
409,81	30912,70
410,28	30889,90
410,74	32845,00
411,21	32690,80
411,68	34481,40
412,14	34346,90
412,61	34346,20
413,08	36010,40
413,54	36042,80
414,01	37022,30
414,48	37661,00
414,94	38695,80
415,41	38126,50
415,88	39444,60
416,34	39159,80
416,81	39450,20
417,27	40753,60
417,74	40392,60
418,21	40413,40
418,67	40964,80
419,14	41371,70
419,60	42008,60
420,07	41579,30
420,54	42746,00
421,00	42198,60
421,47	43045,60
421,93	43146,00
422,40	44072,50
422,87	43988,40
423,33	44500,30
423,80	45094,60
424,26	45670,80
424,73	45626,70
425,19	46400,20
425,66	46330,10
426,13	47417,30
426,59	46826,10
427,06	48002,90
427,52	48122,30
427,99	48555,20
428,45	47945,40
428,92	49338,30
429,38	49312,30
429,85	49539,70
430,32	50023,20
430,78	51851,40
431,25	50091,20
431,71	50933,00
432,18	52168,40
432,64	52184,10
433,11	52064,70
433,57	52287,50
434,04	52825,60
434,50	53257,60
434,97	54038,90
435,43	53676,60
435,90	54901,30
436,36	55058,20
436,83	54842,60
437,29	55944,30
437,76	56192,00
438,22	56530,20
438,69	56579,20
439,15	57040,10
439,62	59542,60
440,08	58051,70
440,55	58760,40
441,01	59348,40
441,48	58772,70
441,94	59313,50
442,41	60987,30
442,87	59829,90
443,34	60788,50
443,80	61149,00
444,27	60907,50
444,73	62536,90
445,20	62455,80
445,66	62648,60
446,12	62926,30
446,59	63531,70
447,05	63786,80
447,52	63994,10
447,98	64000,00
448,45	64000,00
448,91	64000,00
449,38	64000,00
449,84	64000,00
450,30	64000,00
450,77	64000,00
451,23	64000,00
451,70	64000,00
452,16	64000,00
452,63	64000,00
453,09	64000,00
453,55	64000,00
454,02	64000,00
454,48	64000,00
454,95	64000,00
455,41	64000,00
455,87	64000,00
456,34	64000,00
456,80	64000,00
457,27	64000,00
457,73	64000,00
458,19	64000,00
458,66	64000,00
459,12	64000,00
459,58	64000,00
460,05	64000,00
460,51	64000,00
460,98	64000,00
461,44	64000,00
461,90	64000,00
462,37	64000,00
462,83	64000,00
463,29	64000,00
463,76	64000,00
464,22	64000,00
464,68	64000,00
465,15	64000,00
465,61	64000,00
466,07	64000,00
466,54	64000,00
467,00	64000,00
467,46	64000,00
467,93	64000,00
468,39	64000,00
468,85	64000,00
469,32	64000,00
469,78	64000,00
470,24	64000,00
470,71	64000,00
471,17	64000,00
471,63	64000,00
472,10	64000,00
472,56	64000,00
473,02	64000,00
473,48	64000,00
473,95	64000,00
474,41	64000,00
474,87	64000,00
475,34	64000,00
475,80	64000,00
476,26	64000,00
476,72	64000,00
477,19	64000,00
477,65	64000,00
478,11	64000,00
478,58	64000,00
479,04	64000,00
479,50	64000,00
479,96	64000,00
480,43	64000,00
480,89	64000,00
481,35	64000,00
481,81	64000,00
482,28	64000,00
482,74	64000,00
483,20	64000,00
483,66	64000,00
484,13	64000,00
484,59	64000,00
485,05	64000,00
485,51	64000,00
485,97	64000,00
486,44	64000,00
486,90	64000,00
487,36	64000,00
487,82	64000,00
488,29	64000,00
488,75	64000,00
489,21	64000,00
489,67	64000,00
490,13	64000,00
490,60	64000,00
491,06	64000,00
491,52	64000,00
491,98	64000,00
492,44	64000,00
492,90	64000,00
493,37	64000,00
493,83	64000,00
494,29	64000,00
494,75	64000,00
495,21	64000,00
495,67	64000,00
496,14	64000,00
496,60	64000,00
497,06	64000,00
497,52	64000,00
497,98	64000,00
498,44	64000,00
498,91	64000,00
499,37	64000,00
499,83	64000,00
500,29	64000,00
500,75	64000,00
501,21	64000,00
501,67	64000,00
502,14	64000,00
502,60	64000,00
503,06	64000,00
503,52	64000,00
503,98	64000,00
504,44	64000,00
504,90	64000,00
505,36	64000,00
505,82	64000,00
506,29	64000,00
506,75	64000,00
507,21	64000,00
507,67	64000,00
508,13	64000,00
508,59	64000,00
509,05	64000,00
509,51	64000,00
509,97	64000,00
510,43	64000,00
510,89	64000,00
511,35	64000,00
511,82	64000,00
512,28	64000,00
512,74	64000,00
513,20	64000,00
513,66	64000,00
514,12	64000,00
514,58	64000,00
515,04	64000,00
515,50	64000,00
515,96	64000,00
516,42	64000,00
516,88	64000,00
517,34	64000,00
517,80	64000,00
518,26	64000,00
518,72	64000,00
519,18	64000,00
519,64	64000,00
520,10	64000,00
520,56	64000,00
521,02	64000,00
521,48	64000,00
521,94	64000,00
522,40	64000,00
522,86	64000,00
523,32	64000,00
523,78	64000,00
524,24	64000,00
524,70	64000,00
525,16	64000,00
525,62	64000,00
526,08	64000,00
526,54	64000,00
527,00	64000,00
527,46	64000,00
527,92	64000,00
528,38	64000,00
528,84	64000,00
529,30	64000,00
529,76	64000,00
530,22	64000,00
530,68	64000,00
531,14	64000,00
531,60	64000,00
532,06	64000,00
532,52	64000,00
532,98	64000,00
533,44	64000,00
533,90	64000,00
534,36	64000,00
534,82	64000,00
535,28	64000,00
535,73	64000,00
536,19	64000,00
536,65	64000,00
537,11	64000,00
537,57	64000,00
538,03	64000,00
538,49	64000,00
538,95	64000,00
539,41	64000,00
539,87	64000,00
540,33	64000,00
540,79	64000,00
541,24	64000,00
541,70	64000,00
542,16	64000,00
542,62	64000,00
543,08	64000,00
543,54	64000,00
544,00	64000,00
544,46	64000,00
544,91	64000,00
545,37	64000,00
545,83	64000,00
546,29	64000,00
546,75	64000,00
547,21	64000,00
547,67	64000,00
548,13	64000,00
548,58	64000,00
549,04	64000,00
549,50	64000,00
549,96	64000,00
550,42	64000,00
550,88	64000,00
551,33	64000,00
551,79	64000,00
552,25	64000,00
552,71	64000,00
553,17	64000,00
553,63	64000,00
554,08	64000,00
554,54	64000,00
555,00	64000,00
555,46	64000,00
555,92	64000,00
556,37	64000,00
556,83	64000,00
557,29	64000,00
557,75	64000,00
558,21	64000,00
558,66	64000,00
559,12	64000,00
559,58	64000,00
560,04	64000,00
560,50	64000,00
560,95	64000,00
561,41	64000,00
561,87	64000,00
562,33	64000,00
562,78	64000,00
563,24	64000,00
563,70	64000,00
564,16	64000,00
564,61	64000,00
565,07	64000,00
565,53	64000,00
565,99	64000,00
566,44	64000,00
566,90	64000,00
567,36	64000,00
567,82	64000,00
568,27	64000,00
568,73	64000,00
569,19	64000,00
569,65	64000,00
570,10	64000,00
570,56	64000,00
571,02	64000,00
571,47	64000,00
571,93	64000,00
572,39	64000,00
572,85	64000,00
573,30	64000,00
573,76	64000,00
574,22	64000,00
574,67	64000,00
575,13	64000,00
575,59	64000,00
576,04	64000,00
576,50	64000,00
576,96	64000,00
577,42	64000,00
577,87	64000,00
578,33	64000,00
578,79	64000,00
579,24	64000,00
579,70	64000,00
580,16	64000,00
580,61	64000,00
581,07	64000,00
581,53	64000,00
581,98	64000,00
582,44	64000,00
582,89	64000,00
583,35	64000,00
583,81	64000,00
584,26	64000,00
584,72	64000,00
585,18	64000,00
585,63	64000,00
586,09	64000,00
586,55	64000,00
587,00	64000,00
587,46	64000,00
587,91	64000,00
588,37	64000,00
588,83	64000,00
589,28	64000,00
589,74	64000,00
590,19	64000,00
590,65	64000,00
591,11	64000,00
591,56	64000,00
592,02	64000,00
592,47	64000,00
592,93	64000,00
593,39	64000,00
593,84	64000,00
594,30	64000,00
594,75	64000,00
595,21	64000,00
595,66	64000,00
596,12	64000,00
596,58	64000,00
597,03	64000,00
597,49	64000,00
597,94	64000,00
598,40	64000,00
598,85	64000,00
599,31	64000,00
599,76	64000,00
600,22	64000,00
600,67	64000,00
601,13	64000,00
601,59	64000,00
602,04	64000,00
602,50	64000,00
602,95	64000,00
603,41	64000,00
603,86	64000,00
604,32	64000,00
604,77	64000,00
605,23	64000,00
605,68	64000,00
606,14	64000,00
606,59	64000,00
607,05	64000,00
607,50	64000,00
607,96	64000,00
608,41	64000,00
608,87	64000,00
609,32	64000,00
609,78	64000,00
610,23	64000,00
610,69	64000,00
611,14	64000,00
611,60	64000,00
612,05	64000,00
612,50	64000,00
612,96	64000,00
613,41	64000,00
613,87	64000,00
614,32	64000,00
614,78	64000,00
615,23	64000,00
615,69	64000,00
616,14	64000,00
616,59	64000,00
617,05	64000,00
617,50	64000,00
617,96	64000,00
618,41	64000,00
618,87	64000,00
619,32	64000,00
619,77	64000,00
620,23	64000,00
620,68	64000,00
621,14	64000,00
621,59	64000,00
622,05	64000,00
622,50	64000,00
622,95	64000,00
623,41	64000,00
623,86	64000,00
624,32	64000,00
624,77	64000,00
625,22	64000,00
625,68	64000,00
626,13	64000,00
626,58	64000,00
627,04	64000,00
627,49	64000,00
627,95	64000,00
628,40	64000,00
628,85	64000,00
629,31	64000,00
629,76	64000,00
630,21	64000,00
630,67	64000,00
631,12	64000,00
631,57	64000,00
632,03	64000,00
632,48	64000,00
632,93	64000,00
633,39	64000,00
633,84	64000,00
634,29	64000,00
634,75	64000,00
635,20	64000,00
635,65	64000,00
636,11	64000,00
636,56	64000,00
637,01	64000,00
637,47	64000,00
637,92	64000,00
638,37	64000,00
638,83	64000,00
639,28	64000,00
639,73	64000,00
640,18	64000,00
640,64	64000,00
641,09	64000,00
641,54	64000,00
642,00	64000,00
642,45	64000,00
642,90	64000,00
643,35	64000,00
643,81	64000,00
644,26	64000,00
644,71	64000,00
645,17	64000,00
645,62	64000,00
646,07	64000,00
646,52	64000,00
646,98	64000,00
647,43	64000,00
647,88	64000,00
648,33	64000,00
648,79	64000,00
649,24	64000,00
649,69	64000,00
650,14	64000,00
650,59	64000,00
651,05	64000,00
651,50	64000,00
651,95	64000,00
652,40	64000,00
652,86	64000,00
653,31	64000,00
653,76	64000,00
654,21	64000,00
654,66	64000,00
655,12	64000,00
655,57	64000,00
656,02	64000,00
656,47	64000,00
656,92	64000,00
657,38	64000,00
657,83	64000,00
658,28	64000,00
658,73	64000,00
659,18	64000,00
659,63	64000,00
660,09	64000,00
660,54	64000,00
660,99	64000,00
661,44	64000,00
661,89	64000,00
662,34	64000,00
662,80	64000,00
663,25	64000,00
663,70	64000,00
664,15	64000,00
664,60	64000,00
665,05	64000,00
665,50	64000,00
665,96	64000,00
666,41	64000,00
666,86	64000,00
667,31	64000,00
667,76	64000,00
668,21	64000,00
668,66	64000,00
669,11	64000,00
669,56	64000,00
670,02	64000,00
670,47	64000,00
670,92	64000,00
671,37	64000,00
671,82	64000,00
672,27	64000,00
672,72	64000,00
673,17	64000,00
673,62	64000,00
674,07	64000,00
674,52	64000,00
674,98	64000,00
675,43	64000,00
675,88	64000,00
676,33	64000,00
676,78	64000,00
677,23	64000,00
677,68	64000,00
678,13	64000,00
678,58	64000,00
679,03	64000,00
679,48	64000,00
679,93	64000,00
680,38	64000,00
680,83	64000,00
681,28	64000,00
681,73	64000,00
682,18	64000,00
682,63	64000,00
683,08	64000,00
683,53	64000,00
683,98	64000,00
684,43	64000,00
684,89	64000,00
685,34	64000,00
685,79	64000,00
686,24	64000,00
686,69	64000,00
687,14	64000,00
687,59	64000,00
688,04	64000,00
688,49	64000,00
688,93	64000,00
689,38	64000,00
689,83	64000,00
690,28	64000,00
690,73	64000,00
691,18	64000,00
691,63	64000,00
692,08	64000,00
692,53	64000,00
692,98	64000,00
693,43	64000,00
693,88	64000,00
694,33	64000,00
694,78	64000,00
695,23	64000,00
695,68	64000,00
696,13	64000,00
696,58	64000,00
697,03	64000,00
697,48	64000,00
697,93	64000,00
698,38	64000,00
698,82	64000,00
699,27	64000,00
699,72	64000,00
700,17	64000,00
700,62	64000,00
701,07	64000,00
701,52	64000,00
701,97	64000,00
702,42	64000,00
702,87	64000,00
703,32	64000,00
703,76	64000,00
704,21	64000,00
704,66	64000,00
705,11	64000,00
705,56	64000,00
706,01	64000,00
706,46	64000,00
706,91	64000,00
707,36	64000,00
707,80	64000,00
708,25	64000,00
708,70	64000,00
709,15	64000,00
709,60	64000,00
710,05	64000,00
710,50	64000,00
710,94	64000,00
711,39	64000,00
711,84	64000,00
712,29	64000,00
712,74	64000,00
713,19	64000,00
713,63	64000,00
714,08	64000,00
714,53	64000,00
714,98	64000,00
715,43	64000,00
715,87	64000,00
716,32	64000,00
716,77	64000,00
717,22	64000,00
717,67	64000,00
718,12	64000,00
718,56	64000,00
719,01	64000,00
719,46	64000,00
719,91	64000,00
720,35	64000,00
720,80	64000,00
721,25	64000,00
721,70	64000,00
722,15	64000,00
722,59	64000,00
723,04	64000,00
723,49	64000,00
723,94	64000,00
724,38	64000,00
724,83	64000,00
725,28	64000,00
725,73	64000,00
726,17	64000,00
726,62	64000,00
727,07	64000,00
727,52	64000,00
727,96	64000,00
728,41	64000,00
728,86	64000,00
729,31	64000,00
729,75	64000,00
730,20	64000,00
730,65	64000,00
731,09	64000,00
731,54	64000,00
731,99	64000,00
732,44	64000,00
732,88	64000,00
733,33	64000,00
733,78	64000,00
734,22	64000,00
734,67	64000,00
735,12	64000,00
735,57	64000,00
736,01	64000,00
736,46	64000,00
736,91	64000,00
737,35	64000,00
737,80	64000,00
738,25	64000,00
738,69	64000,00
739,14	64000,00
739,59	64000,00
740,03	64000,00
740,48	64000,00
740,93	64000,00
741,37	64000,00
741,82	64000,00
742,26	64000,00
742,71	64000,00
743,16	64000,00
743,60	64000,00
744,05	64000,00
744,50	64000,00
744,94	64000,00
745,39	64000,00
745,84	64000,00
746,28	64000,00
746,73	64000,00
747,17	64000,00
747,62	64000,00
748,07	64000,00
748,51	64000,00
748,96	64000,00
749,40	64000,00
749,85	64000,00
750,30	64000,00
750,74	64000,00
751,19	64000,00
751,63	64000,00
752,08	64000,00
752,53	64000,00
752,97	64000,00
753,42	64000,00
753,86	64000,00
754,31	64000,00
754,75	64000,00
755,20	64000,00
755,64	64000,00
756,09	64000,00
756,54	64000,00
756,98	64000,00
757,43	64000,00
757,87	64000,00
758,32	64000,00
758,76	64000,00
759,21	64000,00
759,65	64000,00
760,10	64000,00
760,54	64000,00
760,99	64000,00
761,43	64000,00
761,88	64000,00
762,33	64000,00
762,77	64000,00
763,22	64000,00
763,66	64000,00
764,11	64000,00
764,55	64000,00
765,00	64000,00
765,44	64000,00
765,89	64000,00
766,33	64000,00
766,77	64000,00
767,22	64000,00
767,66	64000,00
768,11	64000,00
768,55	64000,00
769,00	64000,00
769,44	64000,00
769,89	64000,00
770,33	64000,00
770,78	64000,00
771,22	64000,00
771,67	64000,00
772,11	64000,00
772,56	64000,00
773,00	64000,00
773,44	64000,00
773,89	64000,00
774,33	64000,00
774,78	64000,00
775,22	64000,00
775,67	64000,00
776,11	64000,00
776,55	64000,00
777,00	64000,00
777,44	64000,00
777,89	64000,00
778,33	64000,00
778,77	64000,00
779,22	64000,00
779,66	64000,00
780,11	64000,00
780,55	64000,00
780,99	64000,00
781,44	64000,00
781,88	64000,00
782,33	64000,00
782,77	64000,00
783,21	64000,00
783,66	64000,00
784,10	64000,00
784,55	64000,00
784,99	64000,00
785,43	64000,00
785,88	64000,00
786,32	64000,00
786,76	64000,00
787,21	64000,00
787,65	64000,00
788,09	64000,00
788,54	64000,00
788,98	64000,00
789,42	64000,00
789,87	64000,00
790,31	64000,00
790,75	64000,00
791,20	64000,00
791,64	64000,00
792,08	64000,00
792,53	64000,00
792,97	64000,00
793,41	64000,00
793,86	64000,00
794,30	64000,00
794,74	64000,00
795,18	64000,00
795,63	64000,00
796,07	64000,00
796,51	64000,00
796,96	64000,00
797,40	64000,00
797,84	64000,00
798,28	64000,00
798,73	64000,00
799,17	64000,00
799,61	64000,00
800,06	64000,00
800,50	64000,00
800,94	64000,00
801,38	64000,00
801,83	64000,00
802,27	64000,00
802,71	64000,00
803,15	64000,00
803,60	64000,00
804,04	64000,00
804,48	64000,00
804,92	64000,00
805,37	64000,00
805,81	64000,00
806,25	64000,00
806,69	64000,00
807,13	64000,00
807,58	64000,00
808,02	64000,00
808,46	64000,00
808,90	64000,00
809,34	64000,00
809,79	64000,00
810,23	64000,00
810,67	64000,00
811,11	64000,00
811,55	64000,00
812,00	64000,00
812,44	64000,00
812,88	64000,00
813,32	64000,00
813,76	64000,00
814,21	64000,00
814,65	64000,00
815,09	64000,00
815,53	64000,00
815,97	64000,00
816,41	64000,00
816,85	64000,00
817,30	64000,00
817,74	64000,00
818,18	64000,00
818,62	64000,00
819,06	64000,00
819,50	64000,00
819,94	64000,00
820,39	64000,00
820,83	64000,00
821,27	64000,00
821,71	64000,00
822,15	64000,00
822,59	64000,00
823,03	64000,00
823,47	64000,00
823,92	64000,00
824,36	64000,00
824,80	64000,00
825,24	64000,00
825,68	64000,00
826,12	64000,00
826,56	64000,00
827,00	64000,00
827,44	64000,00
827,88	64000,00
828,32	64000,00
828,77	64000,00
829,21	64000,00
829,65	64000,00
830,09	64000,00
830,53	64000,00
830,97	64000,00
831,41	64000,00
831,85	64000,00
832,29	64000,00
832,73	64000,00
833,17	64000,00
833,61	64000,00
834,05	64000,00
834,49	64000,00
834,93	64000,00
835,37	64000,00
835,81	64000,00
836,25	64000,00
836,69	64000,00
837,13	64000,00
837,57	64000,00
838,01	64000,00
838,45	64000,00
838,89	64000,00
839,33	64000,00
839,77	64000,00
840,21	64000,00
840,65	64000,00
841,09	64000,00
841,53	64000,00
841,97	64000,00
842,41	64000,00
842,85	64000,00
843,29	64000,00
843,73	64000,00
844,17	64000,00
844,61	64000,00
845,05	64000,00
845,49	64000,00
845,93	64000,00
846,37	64000,00
846,81	64000,00
847,25	64000,00
847,69	64000,00
848,13	64000,00
848,57	64000,00
849,01	64000,00
849,45	64000,00
849,89	64000,00
850,32	64000,00
850,76	64000,00
851,20	64000,00
851,64	64000,00
852,08	64000,00
852,52	64000,00
852,96	64000,00
853,40	64000,00
853,84	64000,00
854,28	64000,00
854,72	64000,00
855,16	64000,00
855,59	64000,00
856,03	64000,00
856,47	64000,00
856,91	64000,00
857,35	64000,00
857,79	64000,00
858,23	64000,00
858,67	64000,00
859,10	64000,00
859,54	64000,00
859,98	64000,00
860,42	64000,00
860,86	64000,00
861,30	64000,00
861,74	64000,00
862,17	64000,00
862,61	64000,00
863,05	64000,00
863,49	64000,00
863,93	64000,00
864,37	64000,00
864,80	64000,00
865,24	64000,00
865,68	64000,00
866,12	64000,00
866,56	64000,00
867,00	64000,00
867,43	64000,00
867,87	64000,00
868,31	64000,00
868,75	64000,00
869,19	64000,00
869,62	64000,00
870,06	64000,00
870,50	64000,00
870,94	64000,00
871,38	64000,00
871,81	64000,00
872,25	64000,00
872,69	64000,00
873,13	64000,00
873,56	64000,00
874,00	64000,00
874,44	64000,00
874,88	64000,00
875,31	64000,00
875,75	64000,00
876,19	64000,00
876,63	64000,00
877,06	64000,00
877,50	64000,00
877,94	64000,00
878,38	64000,00
878,81	64000,00
879,25	64000,00
879,69	64000,00
880,13	64000,00
880,56	64000,00
881,00	64000,00
881,44	64000,00
881,87	64000,00
882,31	64000,00
882,75	64000,00
883,19	64000,00
883,62	64000,00
884,06	64000,00
884,50	64000,00
884,93	64000,00
885,37	64000,00
885,81	64000,00
886,24	64000,00
886,68	64000,00
887,12	64000,00
887,55	64000,00
887,99	64000,00
888,43	64000,00
888,86	64000,00
889,30	64000,00
889,74	64000,00
890,17	64000,00
890,61	64000,00
891,05	64000,00
891,48	64000,00
891,92	64000,00
892,36	64000,00
892,79	64000,00
893,23	64000,00
893,67	64000,00
894,10	64000,00
894,54	64000,00
894,97	64000,00
895,41	64000,00
895,85	64000,00
896,28	64000,00
896,72	64000,00
897,16	64000,00
897,59	64000,00
898,03	64000,00
898,46	64000,00
898,90	64000,00
899,34	64000,00
899,77	64000,00
900,21	64000,00
900,64	64000,00
901,08	64000,00
901,51	64000,00
901,95	64000,00
902,39	64000,00
902,82	64000,00
903,26	64000,00
903,69	64000,00
904,13	64000,00
904,56	64000,00
905,00	64000,00
905,43	64000,00
905,87	64000,00
906,31	64000,00
906,74	64000,00
907,18	64000,00
907,61	64000,00
908,05	64000,00
908,48	64000,00
908,92	64000,00
909,35	64000,00
909,79	64000,00
910,22	64000,00
910,66	64000,00
911,09	64000,00
911,53	64000,00
911,96	64000,00
912,40	64000,00
912,83	64000,00
913,27	64000,00
913,70	64000,00
914,14	64000,00
914,57	64000,00
915,01	64000,00
915,44	64000,00
915,88	64000,00
916,31	64000,00
916,75	64000,00
917,18	64000,00
917,62	64000,00
918,05	64000,00
918,49	64000,00
918,92	64000,00
919,35	64000,00
919,79	64000,00
920,22	64000,00
920,66	64000,00
921,09	64000,00
921,53	64000,00
921,96	64000,00
922,40	64000,00
922,83	64000,00
923,26	64000,00
923,70	64000,00
924,13	64000,00
924,57	64000,00
925,00	64000,00
925,44	64000,00
925,87	64000,00
926,30	64000,00
926,74	64000,00
927,17	64000,00
927,61	64000,00
928,04	64000,00
928,47	64000,00
928,91	64000,00
929,34	64000,00
929,77	64000,00
930,21	64000,00
930,64	64000,00
931,08	64000,00
931,51	64000,00
931,94	64000,00
932,38	64000,00
932,81	64000,00
933,24	64000,00
933,68	64000,00
934,11	64000,00
934,54	64000,00
934,98	64000,00
935,41	64000,00
935,84	64000,00
936,28	64000,00
936,71	64000,00
937,14	64000,00
937,58	64000,00
938,01	64000,00
938,44	64000,00
938,88	64000,00
939,31	64000,00
939,74	64000,00
940,18	64000,00
940,61	64000,00
941,04	64000,00
941,48	64000,00
941,91	64000,00
942,34	64000,00
942,77	64000,00
943,21	64000,00
943,64	64000,00
944,07	64000,00
944,51	64000,00
944,94	64000,00
945,37	64000,00
945,80	64000,00
946,24	64000,00
946,67	64000,00
947,10	64000,00
947,53	64000,00
947,97	64000,00
948,40	64000,00
948,83	64000,00
949,26	64000,00
949,70	64000,00
950,13	64000,00
950,56	64000,00
950,99	64000,00
951,43	64000,00
951,86	64000,00
952,29	64000,00
952,72	64000,00
953,15	64000,00
953,59	64000,00
954,02	64000,00
954,45	64000,00
954,88	64000,00
955,31	64000,00
955,75	64000,00
956,18	64000,00
956,61	64000,00
957,04	64000,00
957,47	64000,00
957,91	64000,00
958,34	64000,00
958,77	64000,00
959,20	64000,00
959,63	64000,00
960,06	64000,00
960,50	64000,00
960,93	64000,00
961,36	64000,00
961,79	64000,00
962,22	64000,00
962,65	64000,00
963,09	64000,00
963,52	64000,00
963,95	64000,00
964,38	64000,00
964,81	64000,00
965,24	64000,00
965,67	64000,00
966,10	64000,00
966,54	64000,00
966,97	64000,00
967,40	64000,00
967,83	64000,00
968,26	64000,00
968,69	64000,00
969,12	64000,00
969,55	64000,00
969,98	64000,00
970,42	64000,00
970,85	64000,00
971,28	64000,00
971,71	64000,00
972,14	64000,00
972,57	64000,00
973,00	64000,00
973,43	64000,00
973,86	64000,00
974,29	64000,00
974,72	64000,00
975,15	64000,00
975,58	64000,00
976,01	64000,00
976,45	64000,00
976,88	64000,00
977,31	64000,00
977,74	64000,00
978,17	64000,00
978,60	64000,00
979,03	64000,00
979,46	64000,00
979,89	64000,00
980,32	64000,00
980,75	64000,00
981,18	64000,00
981,61	64000,00
982,04	64000,00
982,47	64000,00
982,90	64000,00
983,33	64000,00
983,76	64000,00
984,19	64000,00
984,62	64000,00
985,05	64000,00
985,48	64000,00
985,91	64000,00
986,34	64000,00
986,77	64000,00
987,20	64000,00
987,63	64000,00
988,06	64000,00
988,49	64000,00
988,92	64000,00
989,35	64000,00
989,78	64000,00
990,20	64000,00
990,63	64000,00
991,06	64000,00
991,49	64000,00
991,92	64000,00
992,35	64000,00
992,78	64000,00
993,21	64000,00
993,64	64000,00
994,07	64000,00
994,50	64000,00
994,93	64000,00
995,36	64000,00
995,79	64000,00
996,21	64000,00
996,64	64000,00
997,07	64000,00
997,50	64000,00
997,93	64000,00
998,36	64000,00
998,79	64000,00
999,22	64000,00
999,65	64000,00
1000,07	64000,00
1000,50	64000,00
1000,93	64000,00
1001,36	64000,00
1001,79	64000,00
1002,22	64000,00
1002,65	64000,00
1003,08	64000,00
1003,50	64000,00
1003,93	64000,00
1004,36	64000,00
1004,79	64000,00
1005,22	64000,00
1005,65	64000,00
1006,07	64000,00
1006,50	64000,00
1006,93	64000,00
1007,36	64000,00
1007,79	64000,00
1008,22	64000,00
1008,64	64000,00
1009,07	64000,00
1009,50	64000,00
1009,93	64000,00
1010,36	64000,00
1010,78	64000,00
1011,21	64000,00
1011,64	64000,00
1012,07	64000,00
1012,50	64000,00
1012,92	64000,00
1013,35	64000,00
1013,78	64000,00
1014,21	64000,00
1014,64	64000,00
1015,06	64000,00
1015,49	64000,00
1015,92	64000,00
1016,35	64000,00
1016,77	64000,00
1017,20	64000,00
1017,63	64000,00
1018,06	64000,00
1018,48	64000,00
1018,91	64000,00
1019,34	64000,00
1019,77	64000,00
1020,19	64000,00
1020,62	64000,00
1021,05	64000,00
1021,47	64000,00
1021,90	64000,00
1022,33	64000,00
1022,76	64000,00
1023,18	64000,00
1023,61	64000,00
1024,04	64000,00
1024,46	64000,00
1024,89	64000,00
1025,32	64000,00
1025,75	64000,00
1026,17	64000,00
1026,60	64000,00
1027,03	64000,00
1027,45	64000,00
1027,88	64000,00
1028,31	64000,00
1028,73	64000,00
1029,16	64000,00
1029,59	64000,00
1030,01	64000,00
1030,44	64000,00
1030,87	64000,00
1031,29	64000,00
1031,72	64000,00
1032,15	64000,00
1032,57	64000,00
1033,00	64000,00
1033,42	64000,00
1033,85	64000,00
1034,28	64000,00
1034,70	64000,00
1035,13	64000,00
1035,56	64000,00
1035,98	64000,00
1036,41	64000,00
1036,83	64000,00
1037,26	64000,00
1037,69	64000,00
1038,11	64000,00
1038,54	64000,00
1038,96	64000,00
1039,39	64000,00
1039,82	64000,00
1040,24	64000,00
1040,67	64000,00
1041,09	64000,00
1041,52	64000,00
1041,95	64000,00
1042,37	64000,00
1042,80	64000,00
1043,22	64000,00
1043,65	64000,00
1044,07	64000,00
1044,50	64000,00
1044,92	64000,00
1045,35	64000,00
1045,78	64000,00
1046,20	64000,00
1046,63	64000,00
1047,05	64000,00
1047,48	64000,00
1047,90	64000,00
1048,33	64000,00
1048,75	64000,00
1049,18	64000,00
1049,60	64000,00
1050,03	64000,00
1050,45	64000,00
1050,88	64000,00
1051,30	64000,00
1051,73	64000,00
1052,15	64000,00
1052,58	64000,00
1053,00	64000,00
1053,43	64000,00
1053,85	64000,00
1054,28	64000,00
1054,70	64000,00
1055,13	64000,00
1055,55	64000,00
1055,98	64000,00
1056,40	64000,00
1056,83	64000,00
1057,25	64000,00
1057,68	64000,00
1058,10	64000,00
1058,52	64000,00
1058,95	64000,00
1059,37	64000,00
1059,80	64000,00
1060,22	64000,00
1060,65	64000,00
1061,07	64000,00
1061,50	64000,00
1061,92	64000,00
1062,34	64000,00
1062,77	64000,00
1063,19	64000,00
1063,62	64000,00
1064,04	64000,00
1064,46	64000,00
1064,89	64000,00
1065,31	64000,00
1065,74	64000,00
1066,16	64000,00
1066,58	64000,00
1067,01	64000,00
1067,43	64000,00
1067,86	64000,00
1068,28	64000,00
1068,70	64000,00
1069,13	64000,00
1069,55	64000,00
1069,97	64000,00
1070,40	64000,00
1070,82	64000,00
1071,25	64000,00
1071,67	64000,00
1072,09	64000,00
1072,52	64000,00
1072,94	64000,00
1073,36	64000,00
1073,79	64000,00
1074,21	64000,00
1074,63	64000,00
1075,06	64000,00
1075,48	64000,00
1075,90	64000,00
1076,33	64000,00
1076,75	64000,00
1077,17	64000,00
1077,59	64000,00
1078,02	63343,90
1078,44	63350,20
1078,86	63097,40
1079,29	60823,70
1079,71	60822,20
1080,13	59655,40
1080,56	58942,90
1080,98	58361,20
1081,40	57406,90
1081,82	56666,00
1082,25	56290,50
1082,67	55533,70
1083,09	54963,00
1083,51	54431,40
1083,94	54012,00
1084,36	54043,70
1084,78	53248,50
1085,21	52720,70
1085,63	53251,90
1086,05	51999,60
1086,47	51873,90
1086,89	51956,00
1087,32	51129,60
1087,74	51815,50
1088,16	62651,80
1088,58	51545,10
1089,01	50391,70
1089,43	50162,80
1089,85	49764,60
1090,27	50022,20
1090,69	48846,40
1091,12	47847,60
1091,54	47275,00
1091,96	46618,30
1092,38	45775,80
1092,80	45402,10
1093,23	44601,40
1093,65	44229,60
1094,07	43556,30
1094,49	43153,80
1094,91	42697,40
1095,34	42334,20
1095,76	41676,20
1096,18	41649,80
1096,60	41507,10
1097,02	40563,30
1097,44	40676,80
1097,87	40259,70
1098,29	40625,30
1098,71	40371,80
1099,13	40029,30
1099,55	39522,80
1099,97	39138,20
1100,39	38497,50
1100,82	38260,20
1101,24	37510,60
1101,66	37015,90
1102,08	35833,40
1102,50	35376,00
1102,92	34960,80
1103,34	34616,30
1103,76	34380,10
1104,19	38628,20
1104,61	34424,70
1105,03	32524,20
1105,45	33380,30
1105,87	33105,40
1106,29	32700,50
1106,71	32732,10
1107,13	31676,50
1107,55	31582,10
1107,97	32248,70
1108,39	30515,50
1108,82	30843,80
1109,24	30160,00
1109,66	29610,70
1110,08	28222,60
1110,50	28416,30
1110,92	27629,70
1111,34	27858,00
1111,76	27317,60
1112,18	27367,50
1112,60	26871,40
1113,02	27073,90
1113,44	26132,70
1113,86	25197,10
1114,28	24911,70
1114,70	24463,50
1115,12	23414,70
1115,54	23549,60
1115,96	22940,40
1116,38	21665,20
1116,80	20376,60
1117,22	18789,50
1117,64	18087,10
1118,06	1851,90
1118,48	2240,50
1118,90	2202,60
1119,32	2200,70
>>>>>End Processed Spectral Data<<<<<
