SpectraSuite Data File
++++++++++++++++++++++++++++++++++++
Date: Wed Feb 13 14:58:49 EET 2013
User: OO Maya
Dark Spectrum Present: No
Reference Spectrum Present: No
Number of Sampled Component Spectra: 1
Spectrometers: MAYP11278
Integration Time (usec): 5000000 (MAYP11278)
Spectra Averaged: 10 (MAYP11278)
Boxcar Smoothing: 0 (MAYP11278)
Correct for Electrical Dark: No (MAYP11278)
Strobe/Lamp Enabled: No (MAYP11278)
Correct for Detector Non-linearity: No (MAYP11278)
Correct for Stray Light: No (MAYP11278)
Number of Pixels in Processed Spectrum: 2068
>>>>>Begin Processed Spectral Data<<<<<
188,05	2294,30
188,53	2216,40
189,01	2186,70
189,49	2186,60
189,96	8053,90
190,44	8964,60
190,92	9107,90
191,40	9418,10
191,88	9891,30
192,36	9538,20
192,83	9358,40
193,31	9168,10
193,79	9556,90
194,27	9479,80
194,75	9689,30
195,23	9436,10
195,70	9898,60
196,18	9351,50
196,66	9497,00
197,14	10638,40
197,62	9602,40
198,09	9236,80
198,57	9385,40
199,05	9345,10
199,53	9755,90
200,01	9941,70
200,48	9457,80
200,96	9486,90
201,44	9885,30
201,92	9772,70
202,39	9773,70
202,87	9170,50
203,35	9709,10
203,83	9212,30
204,31	9900,70
204,78	10083,50
205,26	9345,30
205,74	9366,10
206,22	10146,40
206,69	9482,10
207,17	9696,90
207,65	10636,50
208,13	9587,30
208,60	9871,30
209,08	9506,80
209,56	10001,20
210,04	9913,90
210,51	9588,60
210,99	9573,90
211,47	9767,60
211,94	9580,10
212,42	9297,30
212,90	10358,40
213,38	9804,90
213,85	9355,30
214,33	10345,70
214,81	9743,60
215,29	10233,50
215,76	9738,50
216,24	9945,90
216,72	9887,40
217,19	9916,00
217,67	9354,40
218,15	9529,50
218,62	10065,30
219,10	9115,10
219,58	9295,60
220,05	9363,70
220,53	9598,90
221,01	10154,20
221,49	9421,80
221,96	10025,00
222,44	9420,00
222,92	10048,20
223,39	9508,20
223,87	10032,10
224,35	9612,30
224,82	9465,30
225,30	9285,50
225,78	9575,50
226,25	9361,10
226,73	9692,50
227,21	10107,10
227,68	9717,50
228,16	9907,10
228,63	9985,10
229,11	9964,30
229,59	9628,00
230,06	9603,60
230,54	9533,20
231,02	9946,80
231,49	10010,70
231,97	9716,10
232,45	9705,40
232,92	9375,40
233,40	9731,80
233,87	9811,80
234,35	11211,00
234,83	9872,30
235,30	9516,20
235,78	9401,20
236,25	9249,00
236,73	10056,10
237,21	10639,70
237,68	9532,10
238,16	9766,90
238,63	9855,20
239,11	9804,00
239,59	9640,80
240,06	9235,30
240,54	9988,00
241,01	10206,20
241,49	9847,20
241,96	9726,20
242,44	10091,40
242,92	10207,60
243,39	9357,70
243,87	9414,60
244,34	10028,80
244,82	10309,70
245,29	9707,20
245,77	10227,70
246,24	10229,80
246,72	9568,70
247,20	9818,50
247,67	9848,50
248,15	9930,50
248,62	9951,50
249,10	9189,40
249,57	9847,50
250,05	10074,30
250,52	9889,90
251,00	10343,20
251,47	9785,80
251,95	10606,40
252,42	10396,30
252,90	9574,80
253,37	10364,60
253,85	9913,70
254,32	9717,80
254,80	9908,20
255,27	9982,90
255,75	10240,60
256,22	9552,60
256,70	9896,50
257,17	10037,00
257,65	10226,90
258,12	11090,50
258,60	9832,70
259,07	9638,60
259,55	9911,20
260,02	10119,40
260,50	10553,60
260,97	9801,90
261,45	9648,20
261,92	10359,40
262,40	9630,60
262,87	10059,70
263,35	9843,10
263,82	9411,40
264,30	10145,60
264,77	10315,40
265,25	9684,60
265,72	9879,60
266,19	10033,40
266,67	10170,70
267,14	9792,60
267,62	9887,60
268,09	10017,40
268,57	10113,50
269,04	9443,50
269,51	9660,50
269,99	9731,60
270,46	10170,70
270,94	10318,40
271,41	9792,80
271,89	9877,30
272,36	9361,40
272,83	9465,80
273,31	9213,20
273,78	9919,50
274,26	11445,30
274,73	10210,80
275,20	10271,90
275,68	9740,40
276,15	9943,50
276,63	10127,60
277,10	10239,10
277,57	9494,30
278,05	9839,70
278,52	9469,70
279,00	11669,80
279,47	9757,50
279,94	9738,70
280,42	11629,20
280,89	10381,70
281,36	11328,80
281,84	9794,60
282,31	10472,10
282,78	9864,60
283,26	9880,40
283,73	10182,70
284,21	9628,50
284,68	9541,90
285,15	10238,00
285,63	9844,40
286,10	9978,80
286,57	10083,90
287,05	9447,40
287,52	10147,70
287,99	10604,20
288,47	9864,50
288,94	10361,60
289,41	9311,60
289,89	10610,50
290,36	9713,10
290,83	10143,50
291,30	9724,10
291,78	10116,10
292,25	10847,40
292,72	9681,80
293,20	10410,40
293,67	9822,70
294,14	10283,30
294,62	10293,10
295,09	9793,40
295,56	10180,40
296,03	10245,60
296,51	10938,50
296,98	10820,50
297,45	10356,70
297,93	10278,70
298,40	10158,00
298,87	9886,40
299,34	10659,10
299,82	9933,30
300,29	10214,70
300,76	9793,40
301,23	10371,80
301,71	10469,80
302,18	10452,50
302,65	9754,80
303,12	10495,70
303,60	10574,30
304,07	9911,40
304,54	9990,70
305,01	9832,10
305,49	10247,30
305,96	10258,80
306,43	10203,60
306,90	10329,20
307,38	9906,90
307,85	9855,20
308,32	10191,20
308,79	9881,30
309,27	10493,50
309,74	10513,90
310,21	10375,30
310,68	10262,50
311,15	10436,80
311,63	10002,90
312,10	10602,00
312,57	10200,60
313,04	10983,40
313,51	9895,40
313,99	9959,80
314,46	10207,00
314,93	9871,90
315,40	9822,60
315,87	10476,80
316,34	10369,80
316,82	10201,70
317,29	10353,60
317,76	10185,50
318,23	11336,30
318,70	10195,40
319,17	10180,40
319,65	9718,20
320,12	10412,30
320,59	11023,10
321,06	10566,00
321,53	10172,90
322,00	9619,90
322,48	9846,40
322,95	10984,70
323,42	10092,90
323,89	11207,30
324,36	9675,90
324,83	10351,20
325,30	10210,70
325,78	10219,00
326,25	10372,10
326,72	10355,10
327,19	10715,50
327,66	10729,50
328,13	10707,70
328,60	10458,90
329,07	10351,40
329,54	10241,40
330,02	10223,20
330,49	10044,30
330,96	10672,50
331,43	10451,60
331,90	11058,10
332,37	10136,70
332,84	11403,00
333,31	10915,00
333,78	10836,40
334,25	11216,60
334,72	10674,80
335,20	10845,60
335,67	12200,90
336,14	10149,10
336,61	10552,40
337,08	10435,40
337,55	10704,40
338,02	10358,40
338,49	10331,20
338,96	11101,80
339,43	10753,90
339,90	9877,50
340,37	10009,40
340,84	9907,60
341,31	10489,10
341,78	10660,90
342,25	10120,00
342,72	10359,40
343,19	10571,70
343,67	10327,20
344,14	9966,00
344,61	10112,60
345,08	9744,50
345,55	10016,30
346,02	10153,50
346,49	9762,00
346,96	9582,30
347,43	10563,70
347,90	9628,20
348,37	10263,10
348,84	9885,00
349,31	9296,20
349,78	9854,50
350,25	10143,30
350,72	9771,60
351,19	9470,70
351,66	9877,50
352,13	10530,60
352,60	9799,00
353,07	9634,90
353,54	9809,10
354,01	9958,20
354,48	9804,90
354,94	10052,90
355,41	9874,60
355,88	10423,70
356,35	9499,90
356,82	10459,20
357,29	9440,30
357,76	10729,90
358,23	10087,90
358,70	9251,10
359,17	9462,00
359,64	9656,00
360,11	9716,90
360,58	10210,70
361,05	10529,50
361,52	9811,70
361,99	9774,90
362,46	9776,80
362,93	9792,10
363,39	9790,80
363,86	10865,70
364,33	10098,20
364,80	9586,20
365,27	10111,50
365,74	9708,00
366,21	9533,30
366,68	10095,10
367,15	9983,00
367,62	10113,40
368,09	9494,10
368,55	9621,30
369,02	10361,10
369,49	9573,90
369,96	10333,40
370,43	10070,80
370,90	9782,80
371,37	9723,80
371,84	10065,10
372,31	9654,50
372,77	9403,20
373,24	9687,40
373,71	9974,30
374,18	9450,90
374,65	9670,10
375,12	10173,40
375,59	9441,50
376,05	10628,80
376,52	9912,90
376,99	9663,60
377,46	9552,90
377,93	10138,50
378,40	10029,70
378,86	10002,10
379,33	9972,00
379,80	9908,60
380,27	10220,80
380,74	10617,40
381,21	9989,60
381,67	10607,00
382,14	10542,80
382,61	9492,00
383,08	10129,80
383,55	9830,70
384,02	10466,70
384,48	10005,80
384,95	12409,80
385,42	10125,80
385,89	9989,90
386,36	10075,90
386,82	10919,00
387,29	9900,90
387,76	9773,60
388,23	10677,60
388,69	10575,60
389,16	11009,80
389,63	10369,40
390,10	10995,30
390,57	11062,80
391,03	11455,10
391,50	11645,50
391,97	11857,60
392,44	12194,10
392,90	12333,20
393,37	12680,80
393,84	14161,30
394,31	13627,80
394,77	14535,10
395,24	14182,80
395,71	15280,80
396,18	17625,00
396,64	15566,70
397,11	16790,60
397,58	17364,30
398,05	17268,40
398,51	18221,80
398,98	18608,50
399,45	18965,10
399,92	20374,10
400,38	20031,70
400,85	20926,20
401,32	21366,80
401,78	22263,00
402,25	22745,50
402,72	23213,60
403,18	23460,10
403,65	24830,30
404,12	24661,10
404,59	25749,30
405,05	26487,30
405,52	26718,40
405,99	26283,10
406,45	27457,10
406,92	27777,50
407,39	28841,90
407,85	28338,00
408,32	28859,50
408,79	29366,20
409,25	29217,60
409,72	30395,90
410,19	29955,60
410,65	31253,20
411,12	30801,20
411,59	31861,20
412,05	32573,70
412,52	31526,20
412,99	32755,60
413,45	32612,80
413,92	33301,60
414,39	33791,40
414,85	34555,00
415,32	34102,50
415,78	35169,60
416,25	34873,90
416,72	35153,40
417,18	36151,30
417,65	35872,50
418,12	35985,30
418,58	36403,30
419,05	36711,20
419,51	37332,30
419,98	37044,70
420,45	37981,20
420,91	37525,00
421,38	38201,80
421,84	38399,30
422,31	39107,00
422,78	39128,70
423,24	39524,30
423,71	40052,80
424,17	40562,90
424,64	40473,20
425,11	41154,60
425,57	41259,40
426,04	42030,90
426,50	41685,40
426,97	42637,40
427,43	42793,20
427,90	43190,80
428,37	42717,50
428,83	43841,40
429,30	43957,10
429,76	44098,10
430,23	44636,10
430,69	46151,40
431,16	44738,00
431,62	45437,90
432,09	46494,30
432,55	46514,30
433,02	46534,40
433,48	46701,50
433,95	47244,50
434,42	47610,90
434,88	48216,60
435,35	48057,30
435,81	48948,40
436,28	49092,80
436,74	48927,60
437,21	49992,00
437,67	50249,20
438,14	50533,00
438,60	50684,20
439,07	51087,90
439,53	53176,70
440,00	51997,50
440,46	52515,10
440,93	52936,80
441,39	52550,80
441,86	53082,70
442,32	54519,10
442,79	53658,90
443,25	54309,80
443,72	54721,30
444,18	54654,20
444,64	55961,10
445,11	56054,40
445,57	56215,00
446,04	56490,90
446,50	57008,30
446,97	57140,60
447,43	57629,30
447,90	57818,30
448,36	58076,40
448,83	58910,90
449,29	59366,70
449,75	59518,20
450,22	59803,70
450,68	60037,50
451,15	60494,90
451,61	61285,80
452,08	61838,70
452,54	61770,70
453,00	62841,10
453,47	62805,40
453,93	63221,40
454,40	63825,20
454,86	64000,00
455,32	64000,00
455,79	64000,00
456,25	64000,00
456,72	64000,00
457,18	64000,00
457,64	64000,00
458,11	64000,00
458,57	64000,00
459,04	64000,00
459,50	64000,00
459,96	64000,00
460,43	64000,00
460,89	64000,00
461,36	64000,00
461,82	64000,00
462,28	64000,00
462,75	64000,00
463,21	64000,00
463,67	64000,00
464,14	64000,00
464,60	64000,00
465,06	64000,00
465,53	64000,00
465,99	64000,00
466,45	64000,00
466,92	64000,00
467,38	64000,00
467,84	64000,00
468,31	64000,00
468,77	64000,00
469,23	64000,00
469,70	64000,00
470,16	64000,00
470,62	64000,00
471,09	64000,00
471,55	64000,00
472,01	64000,00
472,48	64000,00
472,94	64000,00
473,40	64000,00
473,87	64000,00
474,33	64000,00
474,79	64000,00
475,25	64000,00
475,72	64000,00
476,18	64000,00
476,64	64000,00
477,11	64000,00
477,57	64000,00
478,03	64000,00
478,49	64000,00
478,96	64000,00
479,42	64000,00
479,88	64000,00
480,35	64000,00
480,81	64000,00
481,27	64000,00
481,73	64000,00
482,20	64000,00
482,66	64000,00
483,12	64000,00
483,58	64000,00
484,05	64000,00
484,51	64000,00
484,97	64000,00
485,43	64000,00
485,89	64000,00
486,36	64000,00
486,82	64000,00
487,28	64000,00
487,74	64000,00
488,21	64000,00
488,67	64000,00
489,13	64000,00
489,59	64000,00
490,05	64000,00
490,52	64000,00
490,98	64000,00
491,44	64000,00
491,90	64000,00
492,36	64000,00
492,83	64000,00
493,29	64000,00
493,75	64000,00
494,21	64000,00
494,67	64000,00
495,14	64000,00
495,60	64000,00
496,06	64000,00
496,52	64000,00
496,98	64000,00
497,44	64000,00
497,91	64000,00
498,37	64000,00
498,83	64000,00
499,29	64000,00
499,75	64000,00
500,21	64000,00
500,67	64000,00
501,14	64000,00
501,60	64000,00
502,06	64000,00
502,52	64000,00
502,98	64000,00
503,44	64000,00
503,90	64000,00
504,37	64000,00
504,83	64000,00
505,29	64000,00
505,75	64000,00
506,21	64000,00
506,67	64000,00
507,13	64000,00
507,59	64000,00
508,05	64000,00
508,51	64000,00
508,98	64000,00
509,44	64000,00
509,90	64000,00
510,36	64000,00
510,82	64000,00
511,28	64000,00
511,74	64000,00
512,20	64000,00
512,66	64000,00
513,12	64000,00
513,58	64000,00
514,04	64000,00
514,51	64000,00
514,97	64000,00
515,43	64000,00
515,89	64000,00
516,35	64000,00
516,81	64000,00
517,27	64000,00
517,73	64000,00
518,19	64000,00
518,65	64000,00
519,11	64000,00
519,57	64000,00
520,03	64000,00
520,49	64000,00
520,95	64000,00
521,41	64000,00
521,87	64000,00
522,33	64000,00
522,79	64000,00
523,25	64000,00
523,71	64000,00
524,17	64000,00
524,63	64000,00
525,09	64000,00
525,55	64000,00
526,01	64000,00
526,47	64000,00
526,93	64000,00
527,39	64000,00
527,85	64000,00
528,31	64000,00
528,77	64000,00
529,23	64000,00
529,69	64000,00
530,15	64000,00
530,61	64000,00
531,07	64000,00
531,53	64000,00
531,99	64000,00
532,45	64000,00
532,91	64000,00
533,37	64000,00
533,83	64000,00
534,29	64000,00
534,75	64000,00
535,21	64000,00
535,67	64000,00
536,12	64000,00
536,58	64000,00
537,04	64000,00
537,50	64000,00
537,96	64000,00
538,42	64000,00
538,88	64000,00
539,34	64000,00
539,80	64000,00
540,26	64000,00
540,72	64000,00
541,18	64000,00
541,63	64000,00
542,09	64000,00
542,55	64000,00
543,01	64000,00
543,47	64000,00
543,93	64000,00
544,39	64000,00
544,85	64000,00
545,31	64000,00
545,76	64000,00
546,22	64000,00
546,68	64000,00
547,14	64000,00
547,60	64000,00
548,06	64000,00
548,52	64000,00
548,98	64000,00
549,43	64000,00
549,89	64000,00
550,35	64000,00
550,81	64000,00
551,27	64000,00
551,73	64000,00
552,19	64000,00
552,64	64000,00
553,10	64000,00
553,56	64000,00
554,02	64000,00
554,48	64000,00
554,93	64000,00
555,39	64000,00
555,85	64000,00
556,31	64000,00
556,77	64000,00
557,23	64000,00
557,68	64000,00
558,14	64000,00
558,60	64000,00
559,06	64000,00
559,52	64000,00
559,97	64000,00
560,43	64000,00
560,89	64000,00
561,35	64000,00
561,81	64000,00
562,26	64000,00
562,72	64000,00
563,18	64000,00
563,64	64000,00
564,09	64000,00
564,55	64000,00
565,01	64000,00
565,47	64000,00
565,92	64000,00
566,38	64000,00
566,84	64000,00
567,30	64000,00
567,75	64000,00
568,21	64000,00
568,67	64000,00
569,13	64000,00
569,58	64000,00
570,04	64000,00
570,50	64000,00
570,96	64000,00
571,41	64000,00
571,87	64000,00
572,33	64000,00
572,78	64000,00
573,24	64000,00
573,70	64000,00
574,16	64000,00
574,61	64000,00
575,07	64000,00
575,53	64000,00
575,98	64000,00
576,44	64000,00
576,90	64000,00
577,36	64000,00
577,81	64000,00
578,27	64000,00
578,73	64000,00
579,18	64000,00
579,64	64000,00
580,10	64000,00
580,55	64000,00
581,01	64000,00
581,47	64000,00
581,92	64000,00
582,38	64000,00
582,84	64000,00
583,29	64000,00
583,75	64000,00
584,21	64000,00
584,66	64000,00
585,12	64000,00
585,57	64000,00
586,03	64000,00
586,49	64000,00
586,94	64000,00
587,40	64000,00
587,86	64000,00
588,31	64000,00
588,77	64000,00
589,22	64000,00
589,68	64000,00
590,14	64000,00
590,59	64000,00
591,05	64000,00
591,51	64000,00
591,96	64000,00
592,42	64000,00
592,87	64000,00
593,33	64000,00
593,78	64000,00
594,24	64000,00
594,70	64000,00
595,15	64000,00
595,61	64000,00
596,06	64000,00
596,52	64000,00
596,98	64000,00
597,43	64000,00
597,89	64000,00
598,34	64000,00
598,80	64000,00
599,25	64000,00
599,71	64000,00
600,16	64000,00
600,62	64000,00
601,08	64000,00
601,53	64000,00
601,99	64000,00
602,44	64000,00
602,90	64000,00
603,35	64000,00
603,81	64000,00
604,26	64000,00
604,72	64000,00
605,17	64000,00
605,63	64000,00
606,08	64000,00
606,54	64000,00
606,99	64000,00
607,45	64000,00
607,90	64000,00
608,36	64000,00
608,81	64000,00
609,27	64000,00
609,72	64000,00
610,18	64000,00
610,63	64000,00
611,09	64000,00
611,54	64000,00
612,00	64000,00
612,45	64000,00
612,91	64000,00
613,36	64000,00
613,82	64000,00
614,27	64000,00
614,73	64000,00
615,18	64000,00
615,64	64000,00
616,09	64000,00
616,54	64000,00
617,00	64000,00
617,45	64000,00
617,91	64000,00
618,36	64000,00
618,82	64000,00
619,27	64000,00
619,72	64000,00
620,18	64000,00
620,63	64000,00
621,09	64000,00
621,54	64000,00
622,00	64000,00
622,45	64000,00
622,90	64000,00
623,36	64000,00
623,81	64000,00
624,27	64000,00
624,72	64000,00
625,17	64000,00
625,63	64000,00
626,08	64000,00
626,54	64000,00
626,99	64000,00
627,44	64000,00
627,90	64000,00
628,35	64000,00
628,81	64000,00
629,26	64000,00
629,71	64000,00
630,17	64000,00
630,62	64000,00
631,07	64000,00
631,53	64000,00
631,98	64000,00
632,43	64000,00
632,89	64000,00
633,34	64000,00
633,79	64000,00
634,25	64000,00
634,70	64000,00
635,15	64000,00
635,61	64000,00
636,06	64000,00
636,51	64000,00
636,97	64000,00
637,42	64000,00
637,87	64000,00
638,33	64000,00
638,78	64000,00
639,23	64000,00
639,69	64000,00
640,14	64000,00
640,59	64000,00
641,05	64000,00
641,50	64000,00
641,95	64000,00
642,40	64000,00
642,86	64000,00
643,31	64000,00
643,76	64000,00
644,22	64000,00
644,67	64000,00
645,12	64000,00
645,57	64000,00
646,03	64000,00
646,48	64000,00
646,93	64000,00
647,38	64000,00
647,84	64000,00
648,29	64000,00
648,74	64000,00
649,19	64000,00
649,65	64000,00
650,10	64000,00
650,55	64000,00
651,00	64000,00
651,46	64000,00
651,91	64000,00
652,36	64000,00
652,81	64000,00
653,27	64000,00
653,72	64000,00
654,17	64000,00
654,62	64000,00
655,07	64000,00
655,53	64000,00
655,98	64000,00
656,43	64000,00
656,88	64000,00
657,33	64000,00
657,79	64000,00
658,24	64000,00
658,69	64000,00
659,14	64000,00
659,59	64000,00
660,05	64000,00
660,50	64000,00
660,95	64000,00
661,40	64000,00
661,85	64000,00
662,30	64000,00
662,76	64000,00
663,21	64000,00
663,66	64000,00
664,11	64000,00
664,56	64000,00
665,01	64000,00
665,47	64000,00
665,92	64000,00
666,37	64000,00
666,82	64000,00
667,27	64000,00
667,72	64000,00
668,17	64000,00
668,62	64000,00
669,08	64000,00
669,53	64000,00
669,98	64000,00
670,43	64000,00
670,88	64000,00
671,33	64000,00
671,78	64000,00
672,23	64000,00
672,69	64000,00
673,14	64000,00
673,59	64000,00
674,04	64000,00
674,49	64000,00
674,94	64000,00
675,39	64000,00
675,84	64000,00
676,29	64000,00
676,74	64000,00
677,19	64000,00
677,64	64000,00
678,10	64000,00
678,55	64000,00
679,00	64000,00
679,45	64000,00
679,90	64000,00
680,35	64000,00
680,80	64000,00
681,25	64000,00
681,70	64000,00
682,15	64000,00
682,60	64000,00
683,05	64000,00
683,50	64000,00
683,95	64000,00
684,40	64000,00
684,85	64000,00
685,30	64000,00
685,75	64000,00
686,20	64000,00
686,65	64000,00
687,10	64000,00
687,55	64000,00
688,00	64000,00
688,45	64000,00
688,90	64000,00
689,35	64000,00
689,80	64000,00
690,25	64000,00
690,70	64000,00
691,15	64000,00
691,60	64000,00
692,05	64000,00
692,50	64000,00
692,95	64000,00
693,40	64000,00
693,85	64000,00
694,30	64000,00
694,75	64000,00
695,20	64000,00
695,65	64000,00
696,10	64000,00
696,55	64000,00
697,00	64000,00
697,45	64000,00
697,90	64000,00
698,35	64000,00
698,80	64000,00
699,24	64000,00
699,69	64000,00
700,14	64000,00
700,59	64000,00
701,04	64000,00
701,49	64000,00
701,94	64000,00
702,39	64000,00
702,84	64000,00
703,29	64000,00
703,74	64000,00
704,19	64000,00
704,63	64000,00
705,08	64000,00
705,53	64000,00
705,98	64000,00
706,43	64000,00
706,88	64000,00
707,33	64000,00
707,78	64000,00
708,22	64000,00
708,67	64000,00
709,12	64000,00
709,57	64000,00
710,02	64000,00
710,47	64000,00
710,92	64000,00
711,37	64000,00
711,81	64000,00
712,26	64000,00
712,71	64000,00
713,16	64000,00
713,61	64000,00
714,06	64000,00
714,50	64000,00
714,95	64000,00
715,40	64000,00
715,85	64000,00
716,30	64000,00
716,75	64000,00
717,19	64000,00
717,64	64000,00
718,09	64000,00
718,54	64000,00
718,99	64000,00
719,43	64000,00
719,88	64000,00
720,33	64000,00
720,78	64000,00
721,23	64000,00
721,67	64000,00
722,12	64000,00
722,57	64000,00
723,02	64000,00
723,47	64000,00
723,91	64000,00
724,36	64000,00
724,81	64000,00
725,26	64000,00
725,70	64000,00
726,15	64000,00
726,60	64000,00
727,05	64000,00
727,49	64000,00
727,94	64000,00
728,39	64000,00
728,84	64000,00
729,28	64000,00
729,73	64000,00
730,18	64000,00
730,63	64000,00
731,07	64000,00
731,52	64000,00
731,97	64000,00
732,41	64000,00
732,86	64000,00
733,31	64000,00
733,76	64000,00
734,20	64000,00
734,65	64000,00
735,10	64000,00
735,54	64000,00
735,99	64000,00
736,44	64000,00
736,89	64000,00
737,33	64000,00
737,78	64000,00
738,23	64000,00
738,67	64000,00
739,12	64000,00
739,57	64000,00
740,01	64000,00
740,46	64000,00
740,91	64000,00
741,35	64000,00
741,80	64000,00
742,25	64000,00
742,69	64000,00
743,14	64000,00
743,59	64000,00
744,03	64000,00
744,48	64000,00
744,92	64000,00
745,37	64000,00
745,82	64000,00
746,26	64000,00
746,71	64000,00
747,16	64000,00
747,60	64000,00
748,05	64000,00
748,49	64000,00
748,94	64000,00
749,39	64000,00
749,83	64000,00
750,28	64000,00
750,73	64000,00
751,17	64000,00
751,62	64000,00
752,06	64000,00
752,51	64000,00
752,95	64000,00
753,40	64000,00
753,85	64000,00
754,29	64000,00
754,74	64000,00
755,18	64000,00
755,63	64000,00
756,07	64000,00
756,52	64000,00
756,97	64000,00
757,41	64000,00
757,86	64000,00
758,30	64000,00
758,75	64000,00
759,19	64000,00
759,64	64000,00
760,08	64000,00
760,53	64000,00
760,98	64000,00
761,42	64000,00
761,87	64000,00
762,31	64000,00
762,76	64000,00
763,20	64000,00
763,65	64000,00
764,09	64000,00
764,54	64000,00
764,98	64000,00
765,43	64000,00
765,87	64000,00
766,32	64000,00
766,76	64000,00
767,21	64000,00
767,65	64000,00
768,10	64000,00
768,54	64000,00
768,99	64000,00
769,43	64000,00
769,88	64000,00
770,32	64000,00
770,77	64000,00
771,21	64000,00
771,65	64000,00
772,10	64000,00
772,54	64000,00
772,99	64000,00
773,43	64000,00
773,88	64000,00
774,32	64000,00
774,77	64000,00
775,21	64000,00
775,65	64000,00
776,10	64000,00
776,54	64000,00
776,99	64000,00
777,43	64000,00
777,88	64000,00
778,32	64000,00
778,76	64000,00
779,21	64000,00
779,65	64000,00
780,10	64000,00
780,54	64000,00
780,99	64000,00
781,43	64000,00
781,87	64000,00
782,32	64000,00
782,76	64000,00
783,20	64000,00
783,65	64000,00
784,09	64000,00
784,54	64000,00
784,98	64000,00
785,42	64000,00
785,87	64000,00
786,31	64000,00
786,75	64000,00
787,20	64000,00
787,64	64000,00
788,09	64000,00
788,53	64000,00
788,97	64000,00
789,42	64000,00
789,86	64000,00
790,30	64000,00
790,75	64000,00
791,19	64000,00
791,63	64000,00
792,08	64000,00
792,52	64000,00
792,96	64000,00
793,41	64000,00
793,85	64000,00
794,29	64000,00
794,74	64000,00
795,18	64000,00
795,62	64000,00
796,06	64000,00
796,51	64000,00
796,95	64000,00
797,39	64000,00
797,84	64000,00
798,28	64000,00
798,72	64000,00
799,16	64000,00
799,61	64000,00
800,05	64000,00
800,49	64000,00
800,94	64000,00
801,38	64000,00
801,82	64000,00
802,26	64000,00
802,71	64000,00
803,15	64000,00
803,59	64000,00
804,03	64000,00
804,48	64000,00
804,92	64000,00
805,36	64000,00
805,80	64000,00
806,25	64000,00
806,69	64000,00
807,13	64000,00
807,57	64000,00
808,01	64000,00
808,46	64000,00
808,90	64000,00
809,34	64000,00
809,78	64000,00
810,23	64000,00
810,67	64000,00
811,11	64000,00
811,55	64000,00
811,99	64000,00
812,44	64000,00
812,88	64000,00
813,32	64000,00
813,76	64000,00
814,20	64000,00
814,64	64000,00
815,09	64000,00
815,53	64000,00
815,97	64000,00
816,41	64000,00
816,85	64000,00
817,29	64000,00
817,74	64000,00
818,18	64000,00
818,62	64000,00
819,06	64000,00
819,50	64000,00
819,94	64000,00
820,39	64000,00
820,83	64000,00
821,27	64000,00
821,71	64000,00
822,15	64000,00
822,59	64000,00
823,03	64000,00
823,47	64000,00
823,92	64000,00
824,36	64000,00
824,80	64000,00
825,24	64000,00
825,68	64000,00
826,12	64000,00
826,56	64000,00
827,00	64000,00
827,44	64000,00
827,88	64000,00
828,33	64000,00
828,77	64000,00
829,21	64000,00
829,65	64000,00
830,09	64000,00
830,53	64000,00
830,97	64000,00
831,41	64000,00
831,85	64000,00
832,29	64000,00
832,73	64000,00
833,17	64000,00
833,61	64000,00
834,05	64000,00
834,49	64000,00
834,93	64000,00
835,37	64000,00
835,82	64000,00
836,26	64000,00
836,70	64000,00
837,14	64000,00
837,58	64000,00
838,02	64000,00
838,46	64000,00
838,90	64000,00
839,34	64000,00
839,78	64000,00
840,22	64000,00
840,66	64000,00
841,10	64000,00
841,54	64000,00
841,98	64000,00
842,42	64000,00
842,86	64000,00
843,30	64000,00
843,74	64000,00
844,18	64000,00
844,62	64000,00
845,06	64000,00
845,50	64000,00
845,94	64000,00
846,37	64000,00
846,81	64000,00
847,25	64000,00
847,69	64000,00
848,13	64000,00
848,57	64000,00
849,01	64000,00
849,45	64000,00
849,89	64000,00
850,33	64000,00
850,77	64000,00
851,21	64000,00
851,65	64000,00
852,09	64000,00
852,53	64000,00
852,97	64000,00
853,40	64000,00
853,84	64000,00
854,28	64000,00
854,72	64000,00
855,16	64000,00
855,60	64000,00
856,04	64000,00
856,48	64000,00
856,92	64000,00
857,36	64000,00
857,79	64000,00
858,23	64000,00
858,67	64000,00
859,11	64000,00
859,55	64000,00
859,99	64000,00
860,43	64000,00
860,87	64000,00
861,30	64000,00
861,74	64000,00
862,18	64000,00
862,62	64000,00
863,06	64000,00
863,50	64000,00
863,94	64000,00
864,37	64000,00
864,81	64000,00
865,25	64000,00
865,69	64000,00
866,13	64000,00
866,57	64000,00
867,00	64000,00
867,44	64000,00
867,88	64000,00
868,32	64000,00
868,76	64000,00
869,19	64000,00
869,63	64000,00
870,07	64000,00
870,51	64000,00
870,95	64000,00
871,38	64000,00
871,82	64000,00
872,26	64000,00
872,70	64000,00
873,14	64000,00
873,57	64000,00
874,01	64000,00
874,45	64000,00
874,89	64000,00
875,32	64000,00
875,76	64000,00
876,20	64000,00
876,64	64000,00
877,07	64000,00
877,51	64000,00
877,95	64000,00
878,39	64000,00
878,82	64000,00
879,26	64000,00
879,70	64000,00
880,14	64000,00
880,57	64000,00
881,01	64000,00
881,45	64000,00
881,89	64000,00
882,32	64000,00
882,76	64000,00
883,20	64000,00
883,63	64000,00
884,07	64000,00
884,51	64000,00
884,94	64000,00
885,38	64000,00
885,82	64000,00
886,26	64000,00
886,69	64000,00
887,13	64000,00
887,57	64000,00
888,00	64000,00
888,44	64000,00
888,88	64000,00
889,31	64000,00
889,75	64000,00
890,19	64000,00
890,62	64000,00
891,06	64000,00
891,50	64000,00
891,93	64000,00
892,37	64000,00
892,81	64000,00
893,24	64000,00
893,68	64000,00
894,11	64000,00
894,55	64000,00
894,99	64000,00
895,42	64000,00
895,86	64000,00
896,30	64000,00
896,73	64000,00
897,17	64000,00
897,60	64000,00
898,04	64000,00
898,48	64000,00
898,91	64000,00
899,35	64000,00
899,78	64000,00
900,22	64000,00
900,66	64000,00
901,09	64000,00
901,53	64000,00
901,96	64000,00
902,40	64000,00
902,84	64000,00
903,27	64000,00
903,71	64000,00
904,14	64000,00
904,58	64000,00
905,01	64000,00
905,45	64000,00
905,88	64000,00
906,32	64000,00
906,76	64000,00
907,19	64000,00
907,63	64000,00
908,06	64000,00
908,50	64000,00
908,93	64000,00
909,37	64000,00
909,80	64000,00
910,24	64000,00
910,67	64000,00
911,11	64000,00
911,54	64000,00
911,98	64000,00
912,41	64000,00
912,85	64000,00
913,28	64000,00
913,72	64000,00
914,15	64000,00
914,59	64000,00
915,02	64000,00
915,46	64000,00
915,89	64000,00
916,33	64000,00
916,76	64000,00
917,20	64000,00
917,63	64000,00
918,07	64000,00
918,50	64000,00
918,94	64000,00
919,37	64000,00
919,81	64000,00
920,24	64000,00
920,67	64000,00
921,11	64000,00
921,54	64000,00
921,98	64000,00
922,41	64000,00
922,85	64000,00
923,28	64000,00
923,72	64000,00
924,15	64000,00
924,58	64000,00
925,02	64000,00
925,45	64000,00
925,89	64000,00
926,32	64000,00
926,75	64000,00
927,19	64000,00
927,62	64000,00
928,06	64000,00
928,49	64000,00
928,92	64000,00
929,36	64000,00
929,79	64000,00
930,23	64000,00
930,66	64000,00
931,09	64000,00
931,53	64000,00
931,96	64000,00
932,39	64000,00
932,83	64000,00
933,26	64000,00
933,70	64000,00
934,13	64000,00
934,56	64000,00
935,00	64000,00
935,43	64000,00
935,86	64000,00
936,30	64000,00
936,73	64000,00
937,16	64000,00
937,60	64000,00
938,03	64000,00
938,46	64000,00
938,90	64000,00
939,33	64000,00
939,76	64000,00
940,19	64000,00
940,63	64000,00
941,06	64000,00
941,49	64000,00
941,93	64000,00
942,36	64000,00
942,79	64000,00
943,23	64000,00
943,66	64000,00
944,09	64000,00
944,52	64000,00
944,96	64000,00
945,39	64000,00
945,82	64000,00
946,26	64000,00
946,69	64000,00
947,12	64000,00
947,55	64000,00
947,99	64000,00
948,42	64000,00
948,85	64000,00
949,28	64000,00
949,72	64000,00
950,15	64000,00
950,58	64000,00
951,01	64000,00
951,45	64000,00
951,88	64000,00
952,31	64000,00
952,74	64000,00
953,17	64000,00
953,61	64000,00
954,04	64000,00
954,47	64000,00
954,90	64000,00
955,33	64000,00
955,77	64000,00
956,20	64000,00
956,63	64000,00
957,06	64000,00
957,49	64000,00
957,93	64000,00
958,36	64000,00
958,79	64000,00
959,22	64000,00
959,65	64000,00
960,08	64000,00
960,52	64000,00
960,95	64000,00
961,38	64000,00
961,81	64000,00
962,24	64000,00
962,67	64000,00
963,11	64000,00
963,54	64000,00
963,97	64000,00
964,40	64000,00
964,83	64000,00
965,26	64000,00
965,69	64000,00
966,13	64000,00
966,56	64000,00
966,99	64000,00
967,42	64000,00
967,85	64000,00
968,28	64000,00
968,71	64000,00
969,14	64000,00
969,57	64000,00
970,01	64000,00
970,44	64000,00
970,87	64000,00
971,30	64000,00
971,73	64000,00
972,16	64000,00
972,59	64000,00
973,02	64000,00
973,45	64000,00
973,88	64000,00
974,31	64000,00
974,74	64000,00
975,17	64000,00
975,61	64000,00
976,04	64000,00
976,47	64000,00
976,90	64000,00
977,33	64000,00
977,76	64000,00
978,19	64000,00
978,62	64000,00
979,05	64000,00
979,48	64000,00
979,91	64000,00
980,34	64000,00
980,77	64000,00
981,20	64000,00
981,63	64000,00
982,06	64000,00
982,49	64000,00
982,92	64000,00
983,35	64000,00
983,78	64000,00
984,21	64000,00
984,64	64000,00
985,07	64000,00
985,50	64000,00
985,93	64000,00
986,36	64000,00
986,79	64000,00
987,22	64000,00
987,65	64000,00
988,08	64000,00
988,51	64000,00
988,94	64000,00
989,37	64000,00
989,80	64000,00
990,23	64000,00
990,66	64000,00
991,09	64000,00
991,51	64000,00
991,94	64000,00
992,37	64000,00
992,80	64000,00
993,23	64000,00
993,66	64000,00
994,09	64000,00
994,52	64000,00
994,95	64000,00
995,38	64000,00
995,81	64000,00
996,24	64000,00
996,67	64000,00
997,09	64000,00
997,52	64000,00
997,95	64000,00
998,38	64000,00
998,81	64000,00
999,24	64000,00
999,67	64000,00
1000,10	64000,00
1000,53	64000,00
1000,95	64000,00
1001,38	64000,00
1001,81	64000,00
1002,24	64000,00
1002,67	64000,00
1003,10	64000,00
1003,53	64000,00
1003,95	64000,00
1004,38	64000,00
1004,81	64000,00
1005,24	64000,00
1005,67	64000,00
1006,10	64000,00
1006,52	64000,00
1006,95	64000,00
1007,38	64000,00
1007,81	64000,00
1008,24	64000,00
1008,67	64000,00
1009,09	64000,00
1009,52	64000,00
1009,95	64000,00
1010,38	64000,00
1010,81	64000,00
1011,23	64000,00
1011,66	64000,00
1012,09	64000,00
1012,52	64000,00
1012,95	64000,00
1013,37	64000,00
1013,80	64000,00
1014,23	64000,00
1014,66	64000,00
1015,08	64000,00
1015,51	64000,00
1015,94	64000,00
1016,37	64000,00
1016,80	64000,00
1017,22	64000,00
1017,65	64000,00
1018,08	64000,00
1018,51	64000,00
1018,93	64000,00
1019,36	64000,00
1019,79	64000,00
1020,21	64000,00
1020,64	64000,00
1021,07	64000,00
1021,50	64000,00
1021,92	64000,00
1022,35	64000,00
1022,78	64000,00
1023,21	64000,00
1023,63	64000,00
1024,06	64000,00
1024,49	64000,00
1024,91	64000,00
1025,34	64000,00
1025,77	64000,00
1026,19	64000,00
1026,62	64000,00
1027,05	64000,00
1027,47	64000,00
1027,90	64000,00
1028,33	64000,00
1028,75	64000,00
1029,18	64000,00
1029,61	64000,00
1030,03	64000,00
1030,46	64000,00
1030,89	64000,00
1031,31	64000,00
1031,74	64000,00
1032,17	64000,00
1032,59	64000,00
1033,02	64000,00
1033,45	64000,00
1033,87	64000,00
1034,30	64000,00
1034,73	64000,00
1035,15	64000,00
1035,58	64000,00
1036,00	64000,00
1036,43	64000,00
1036,86	64000,00
1037,28	64000,00
1037,71	64000,00
1038,13	64000,00
1038,56	64000,00
1038,99	64000,00
1039,41	64000,00
1039,84	64000,00
1040,26	64000,00
1040,69	64000,00
1041,11	64000,00
1041,54	64000,00
1041,97	64000,00
1042,39	64000,00
1042,82	64000,00
1043,24	64000,00
1043,67	64000,00
1044,09	64000,00
1044,52	64000,00
1044,95	64000,00
1045,37	64000,00
1045,80	64000,00
1046,22	64000,00
1046,65	64000,00
1047,07	64000,00
1047,50	64000,00
1047,92	64000,00
1048,35	64000,00
1048,77	64000,00
1049,20	64000,00
1049,62	64000,00
1050,05	64000,00
1050,47	64000,00
1050,90	64000,00
1051,32	64000,00
1051,75	64000,00
1052,17	64000,00
1052,60	64000,00
1053,02	64000,00
1053,45	64000,00
1053,87	64000,00
1054,30	64000,00
1054,72	64000,00
1055,15	64000,00
1055,57	64000,00
1056,00	64000,00
1056,42	64000,00
1056,85	64000,00
1057,27	64000,00
1057,70	64000,00
1058,12	64000,00
1058,54	64000,00
1058,97	64000,00
1059,39	64000,00
1059,82	64000,00
1060,24	64000,00
1060,67	64000,00
1061,09	64000,00
1061,51	64000,00
1061,94	64000,00
1062,36	64000,00
1062,79	64000,00
1063,21	64000,00
1063,64	64000,00
1064,06	64000,00
1064,48	64000,00
1064,91	64000,00
1065,33	64000,00
1065,76	64000,00
1066,18	64000,00
1066,60	64000,00
1067,03	64000,00
1067,45	64000,00
1067,87	64000,00
1068,30	64000,00
1068,72	64000,00
1069,15	64000,00
1069,57	64000,00
1069,99	63722,70
1070,42	63678,80
1070,84	62984,00
1071,26	62181,60
1071,69	61045,90
1072,11	60759,10
1072,53	59885,40
1072,96	59295,00
1073,38	58720,20
1073,80	59054,80
1074,23	58407,80
1074,65	57751,60
1075,07	57912,80
1075,50	57822,70
1075,92	57792,30
1076,34	57385,30
1076,77	57089,70
1077,19	57056,40
1077,61	57106,90
1078,04	56244,20
1078,46	56073,70
1078,88	55830,00
1079,30	53900,20
1079,73	53727,50
1080,15	52631,70
1080,57	51905,10
1081,00	51348,40
1081,42	50436,10
1081,84	49802,00
1082,26	49390,20
1082,69	48659,60
1083,11	48110,70
1083,53	47870,90
1083,95	47318,00
1084,38	47332,40
1084,80	46608,80
1085,22	46256,20
1085,64	46540,90
1086,07	45604,10
1086,49	45606,60
1086,91	45545,20
1087,33	44885,00
1087,76	45487,10
1088,18	54488,10
1088,60	45233,60
1089,02	44358,00
1089,45	44018,30
1089,87	43754,80
1090,29	43659,70
1090,71	42771,00
1091,13	41807,10
1091,56	41213,80
1091,98	40639,90
1092,40	39860,10
1092,82	39418,10
1093,24	38666,10
1093,66	38308,00
1094,09	37647,10
1094,51	37350,10
1094,93	36815,30
1095,35	36603,40
1095,77	35907,60
1096,19	35911,90
1096,62	35868,40
1097,04	35116,40
1097,46	35238,80
1097,88	34778,00
1098,30	35060,80
1098,72	34850,50
1099,15	34595,60
1099,57	34134,60
1099,99	33819,00
1100,41	33195,20
1100,83	32847,00
1101,25	32191,20
1101,67	31643,20
1102,09	30576,60
1102,52	30111,60
1102,94	29780,70
1103,36	29373,90
1103,78	29097,50
1104,20	28580,20
1104,62	29217,20
1105,04	27705,00
1105,46	28299,10
1105,88	28091,70
1106,30	27786,80
1106,73	27772,30
1107,15	26913,10
1107,57	26855,90
1107,99	27237,90
1108,41	25844,80
1108,83	25883,60
1109,25	25265,00
1109,67	24766,20
1110,09	23566,80
1110,51	23651,00
1110,93	23041,40
1111,35	23168,10
1111,77	22764,10
1112,19	22818,20
1112,61	22474,60
1113,03	22505,30
1113,45	21678,80
1113,87	20943,00
1114,29	20422,00
1114,71	20013,20
1115,13	19248,80
1115,55	19225,80
1115,98	18755,20
1116,40	17479,70
1116,82	16431,60
1117,24	15067,30
1117,66	14531,50
1118,08	1935,00
1118,50	2215,20
1118,91	2186,70
1119,33	2189,10
>>>>>End Processed Spectral Data<<<<<
