SpectraSuite Data File
++++++++++++++++++++++++++++++++++++
Date: Wed Feb 13 09:59:48 EET 2013
User: OO Maya
Dark Spectrum Present: No
Reference Spectrum Present: No
Number of Sampled Component Spectra: 1
Spectrometers: MAYP11278
Integration Time (usec): 5000000 (MAYP11278)
Spectra Averaged: 10 (MAYP11278)
Boxcar Smoothing: 0 (MAYP11278)
Correct for Electrical Dark: No (MAYP11278)
Strobe/Lamp Enabled: No (MAYP11278)
Correct for Detector Non-linearity: No (MAYP11278)
Correct for Stray Light: No (MAYP11278)
Number of Pixels in Processed Spectrum: 2068
>>>>>Begin Processed Spectral Data<<<<<
188,05	2289,40
188,53	2215,00
189,01	2183,10
189,49	2183,60
189,96	7159,40
190,44	7970,00
190,92	8125,60
191,40	8458,50
191,88	8877,80
192,36	8543,80
192,83	8400,10
193,31	8204,80
193,79	8592,60
194,27	8480,80
194,75	8717,90
195,23	8478,70
195,70	8864,50
196,18	8421,70
196,66	8535,00
197,14	9558,70
197,62	8596,00
198,09	8319,40
198,57	8462,80
199,05	8402,20
199,53	8750,10
200,01	8921,90
200,48	8495,00
200,96	8534,30
201,44	8863,80
201,92	8761,70
202,39	8780,10
202,87	8241,90
203,35	8703,70
203,83	8307,40
204,31	8884,80
204,78	9023,30
205,26	8425,50
205,74	8411,50
206,22	9102,10
206,69	8555,70
207,17	8682,40
207,65	9535,30
208,13	8622,40
208,60	8833,70
209,08	8511,90
209,56	8969,50
210,04	8886,60
210,51	8599,10
210,99	8634,10
211,47	8762,50
211,94	8613,00
212,42	8361,70
212,90	9294,70
213,38	8764,10
213,85	8426,40
214,33	9284,50
214,81	8732,60
215,29	9175,80
215,76	8758,00
216,24	8924,40
216,72	8937,20
217,19	8894,00
217,67	8404,30
218,15	8548,60
218,62	8998,20
219,10	8179,50
219,58	8366,50
220,05	8405,10
220,53	8613,10
221,01	9136,50
221,49	8476,30
221,96	9003,10
222,44	8473,60
222,92	9039,20
223,39	8520,30
223,87	8951,40
224,35	8642,60
224,82	8492,60
225,30	8348,30
225,78	8608,20
226,25	8409,10
226,73	8677,40
227,21	9036,40
227,68	8696,80
228,16	8862,00
228,63	8969,90
229,11	8929,60
229,59	8641,30
230,06	8661,20
230,54	8567,70
231,02	8907,40
231,49	8986,50
231,97	8714,30
232,45	8721,60
232,92	8385,70
233,40	8760,70
233,87	8797,40
234,35	10058,60
234,83	8853,90
235,30	8566,20
235,78	8485,70
236,25	8329,40
236,73	9016,90
237,21	9565,40
237,68	8540,70
238,16	8774,70
238,63	8824,30
239,11	8812,20
239,59	8669,50
240,06	8328,50
240,54	8965,00
241,01	9185,70
241,49	8860,50
241,96	8729,80
242,44	9066,80
242,92	9164,70
243,39	8403,30
243,87	8441,40
244,34	9008,00
244,82	9255,10
245,29	8685,30
245,77	9184,30
246,24	9148,80
246,72	8614,80
247,20	8813,40
247,67	8853,40
248,15	8864,10
248,62	8901,10
249,10	8258,10
249,57	8837,40
250,05	9039,90
250,52	8870,50
251,00	9286,60
251,47	8763,20
251,95	9533,70
252,42	9330,30
252,90	8586,20
253,37	9289,50
253,85	8919,00
254,32	8753,60
254,80	8901,00
255,27	8934,60
255,75	9172,80
256,22	8558,00
256,70	8900,90
257,17	8986,60
257,65	9189,70
258,12	9929,20
258,60	8823,70
259,07	8637,40
259,55	8953,90
260,02	9088,60
260,50	9483,90
260,97	8839,10
261,45	8664,70
261,92	9292,10
262,40	8627,60
262,87	9052,70
263,35	8852,70
263,82	8461,50
264,30	9093,20
264,77	9225,60
265,25	8681,60
265,72	8845,10
266,19	8981,20
266,67	9133,00
267,14	8800,10
267,62	8903,80
268,09	9031,20
268,57	9092,50
269,04	8476,00
269,51	8727,60
269,99	8736,20
270,46	9144,90
270,94	9269,30
271,41	8763,40
271,89	8905,20
272,36	8442,30
272,83	8512,10
273,31	8288,50
273,78	8959,30
274,26	10318,70
274,73	9197,10
275,20	9266,70
275,68	8772,80
276,15	8937,20
276,63	9090,30
277,10	9219,80
277,57	8550,20
278,05	8816,20
278,52	8540,00
279,00	10528,20
279,47	8768,00
279,94	8702,70
280,42	10476,00
280,89	9351,90
281,36	10199,60
281,84	8824,80
282,31	9416,80
282,78	8894,70
283,26	8897,90
283,73	9192,10
284,21	8646,40
284,68	8595,70
285,15	9200,50
285,63	8872,40
286,10	8970,10
286,57	9012,60
287,05	8509,10
287,52	9130,70
287,99	9535,40
288,47	8871,80
288,94	9318,70
289,41	8416,00
289,89	9592,50
290,36	8760,40
290,83	9114,40
291,30	8751,80
291,78	9054,40
292,25	9746,80
292,72	8719,50
293,20	9326,00
293,67	8840,00
294,14	9221,90
294,62	9273,70
295,09	8826,40
295,56	9180,20
296,03	9235,80
296,51	9867,00
296,98	9757,20
297,45	9365,40
297,93	9245,30
298,40	9141,10
298,87	8877,80
299,34	9574,10
299,82	8913,20
300,29	9166,20
300,76	8816,00
301,23	9326,10
301,71	9421,70
302,18	9360,30
302,65	8806,00
303,12	9457,40
303,60	9556,60
304,07	8927,80
304,54	9004,10
305,01	8873,80
305,49	9199,60
305,96	9252,00
306,43	9169,90
306,90	9290,10
307,38	8877,40
307,85	8855,90
308,32	9150,40
308,79	8926,00
309,27	9456,20
309,74	9493,10
310,21	9347,10
310,68	9252,00
311,15	9366,30
311,63	8994,70
312,10	9565,50
312,57	9157,30
313,04	9886,50
313,51	8903,10
313,99	8939,50
314,46	9187,60
314,93	8913,80
315,40	8859,30
315,87	9418,70
316,34	9331,00
316,82	9184,40
317,29	9357,60
317,76	9169,00
318,23	10215,20
318,70	9199,10
319,17	9195,00
319,65	8782,60
320,12	9424,90
320,59	9933,70
321,06	9537,60
321,53	9154,40
322,00	8705,80
322,48	8871,60
322,95	9882,70
323,42	9060,30
323,89	10045,70
324,36	8746,00
324,83	9350,90
325,30	9223,60
325,78	9214,30
326,25	9407,50
326,72	9336,00
327,19	9698,30
327,66	9695,40
328,13	9640,50
328,60	9444,30
329,07	9354,10
329,54	9297,20
330,02	9237,60
330,49	9076,30
330,96	9643,80
331,43	9445,90
331,90	9972,20
332,37	9169,50
332,84	10299,50
333,31	9880,80
333,78	9832,80
334,25	10163,70
334,72	9608,90
335,20	9846,10
335,67	11018,40
336,14	9192,10
336,61	9544,20
337,08	9448,90
337,55	9665,90
338,02	9347,90
338,49	9307,90
338,96	10008,60
339,43	9717,10
339,90	8877,90
340,37	9037,30
340,84	8965,60
341,31	9466,80
341,78	9644,40
342,25	9106,00
342,72	9354,90
343,19	9529,60
343,67	9248,50
344,14	9019,40
344,61	9093,90
345,08	8760,50
345,55	9016,30
346,02	9159,00
346,49	8760,30
346,96	8617,10
347,43	9485,00
347,90	8638,90
348,37	9204,20
348,84	8903,40
349,31	8357,90
349,78	8836,70
350,25	9112,80
350,72	8804,50
351,19	8489,00
351,66	8857,60
352,13	9458,30
352,60	8843,70
353,07	8641,40
353,54	8796,90
354,01	8898,40
354,48	8787,10
354,94	9029,40
355,41	8861,10
355,88	9365,00
356,35	8529,80
356,82	9370,40
357,29	8448,60
357,76	9633,00
358,23	9078,90
358,70	8339,70
359,17	8541,70
359,64	8660,90
360,11	8738,40
360,58	9147,10
361,05	9452,60
361,52	8803,30
361,99	8818,00
362,46	8814,20
362,93	8794,90
363,39	8810,20
363,86	9752,00
364,33	9048,80
364,80	8652,90
365,27	9122,50
365,74	8745,10
366,21	8584,70
366,68	9104,90
367,15	9003,90
367,62	9051,80
368,09	8540,00
368,55	8655,80
369,02	9273,40
369,49	8604,50
369,96	9260,10
370,43	9057,40
370,90	8800,40
371,37	8727,60
371,84	9079,40
372,31	8687,40
372,77	8423,20
373,24	8761,70
373,71	8993,50
374,18	8558,90
374,65	8734,60
375,12	9145,00
375,59	8508,60
376,05	9600,70
376,52	8932,00
376,99	8638,00
377,46	8604,30
377,93	9117,50
378,40	9078,20
378,86	9002,30
379,33	8970,90
379,80	8908,40
380,27	9188,90
380,74	9554,40
381,21	8993,70
381,67	9544,60
382,14	9487,50
382,61	8507,10
383,08	9106,60
383,55	8825,10
384,02	9456,30
384,48	9040,40
384,95	11175,50
385,42	9119,30
385,89	8965,20
386,36	9050,90
386,82	9847,90
387,29	8940,30
387,76	8853,10
388,23	9636,60
388,69	9572,50
389,16	9947,50
389,63	9383,60
390,10	9965,40
390,57	10059,70
391,03	10438,40
391,50	10607,70
391,97	10839,00
392,44	11175,40
392,90	11310,80
393,37	11677,80
393,84	13097,20
394,31	12596,50
394,77	13446,80
395,24	13176,00
395,71	14252,80
396,18	16364,10
396,64	14604,20
397,11	15699,60
397,58	16350,10
398,05	16271,90
398,51	17207,70
398,98	17561,60
399,45	17981,60
399,92	19254,70
400,38	19096,00
400,85	19947,60
401,32	20427,70
401,78	21166,50
402,25	21692,30
402,72	22182,00
403,18	22472,70
403,65	23691,80
404,12	23590,90
404,59	24650,50
405,05	25362,90
405,52	25646,50
405,99	25385,70
406,45	26311,10
406,92	26642,90
407,39	27696,10
407,85	27295,00
408,32	27696,20
408,79	28298,80
409,25	28157,60
409,72	29259,80
410,19	28916,10
410,65	30153,50
411,12	29771,70
411,59	30810,40
412,05	31405,90
412,52	30566,70
412,99	31638,80
413,45	31575,70
413,92	32234,20
414,39	32633,40
414,85	33405,20
415,32	33048,20
415,78	34014,10
416,25	33774,70
416,72	34086,20
417,18	35004,80
417,65	34809,30
418,12	34890,00
418,58	35307,70
419,05	35633,60
419,51	36163,70
419,98	36030,10
420,45	36932,80
420,91	36505,50
421,38	37103,30
421,84	37385,90
422,31	38054,50
422,78	37993,30
423,24	38408,40
423,71	38922,80
424,17	39395,90
424,64	39340,10
425,11	39997,00
425,57	40055,00
426,04	40829,40
426,50	40614,20
426,97	41472,80
427,43	41611,40
427,90	41994,50
428,37	41618,50
428,83	42613,00
429,30	42757,70
429,76	42972,50
430,23	43391,10
430,69	44792,40
431,16	43629,40
431,62	44270,00
432,09	45274,70
432,55	45334,30
433,02	45393,60
433,48	45541,10
433,95	46133,10
434,42	46465,60
434,88	47007,10
435,35	46902,90
435,81	47769,20
436,28	47932,40
436,74	47851,10
437,21	48870,70
437,67	49054,70
438,14	49360,70
438,60	49593,80
439,07	49904,40
439,53	51824,30
440,00	50798,60
440,46	51285,10
440,93	51790,50
441,39	51448,60
441,86	51936,20
442,32	53263,30
442,79	52455,80
443,25	53150,40
443,72	53607,30
444,18	53574,00
444,64	54768,20
445,11	54775,40
445,57	55002,30
446,04	55323,70
446,50	55780,60
446,97	56004,50
447,43	56413,10
447,90	56703,80
448,36	56947,90
448,83	57742,80
449,29	58128,20
449,75	58294,50
450,22	58540,90
450,68	58812,40
451,15	59447,30
451,61	60010,80
452,08	60631,80
452,54	60643,50
453,00	61610,10
453,47	61600,90
453,93	62040,80
454,40	62571,70
454,86	63129,60
455,32	63322,10
455,79	63831,30
456,25	64000,00
456,72	64000,00
457,18	64000,00
457,64	64000,00
458,11	64000,00
458,57	64000,00
459,04	64000,00
459,50	64000,00
459,96	64000,00
460,43	64000,00
460,89	64000,00
461,36	64000,00
461,82	64000,00
462,28	64000,00
462,75	64000,00
463,21	64000,00
463,67	64000,00
464,14	64000,00
464,60	64000,00
465,06	64000,00
465,53	64000,00
465,99	64000,00
466,45	64000,00
466,92	64000,00
467,38	64000,00
467,84	64000,00
468,31	64000,00
468,77	64000,00
469,23	64000,00
469,70	64000,00
470,16	64000,00
470,62	64000,00
471,09	64000,00
471,55	64000,00
472,01	64000,00
472,48	64000,00
472,94	64000,00
473,40	64000,00
473,87	64000,00
474,33	64000,00
474,79	64000,00
475,25	64000,00
475,72	64000,00
476,18	64000,00
476,64	64000,00
477,11	64000,00
477,57	64000,00
478,03	64000,00
478,49	64000,00
478,96	64000,00
479,42	64000,00
479,88	64000,00
480,35	64000,00
480,81	64000,00
481,27	64000,00
481,73	64000,00
482,20	64000,00
482,66	64000,00
483,12	64000,00
483,58	64000,00
484,05	64000,00
484,51	64000,00
484,97	64000,00
485,43	64000,00
485,89	64000,00
486,36	64000,00
486,82	64000,00
487,28	64000,00
487,74	64000,00
488,21	64000,00
488,67	64000,00
489,13	64000,00
489,59	64000,00
490,05	64000,00
490,52	64000,00
490,98	64000,00
491,44	64000,00
491,90	64000,00
492,36	64000,00
492,83	64000,00
493,29	64000,00
493,75	64000,00
494,21	64000,00
494,67	64000,00
495,14	64000,00
495,60	64000,00
496,06	64000,00
496,52	64000,00
496,98	64000,00
497,44	64000,00
497,91	64000,00
498,37	64000,00
498,83	64000,00
499,29	64000,00
499,75	64000,00
500,21	64000,00
500,67	64000,00
501,14	64000,00
501,60	64000,00
502,06	64000,00
502,52	64000,00
502,98	64000,00
503,44	64000,00
503,90	64000,00
504,37	64000,00
504,83	64000,00
505,29	64000,00
505,75	64000,00
506,21	64000,00
506,67	64000,00
507,13	64000,00
507,59	64000,00
508,05	64000,00
508,51	64000,00
508,98	64000,00
509,44	64000,00
509,90	64000,00
510,36	64000,00
510,82	64000,00
511,28	64000,00
511,74	64000,00
512,20	64000,00
512,66	64000,00
513,12	64000,00
513,58	64000,00
514,04	64000,00
514,51	64000,00
514,97	64000,00
515,43	64000,00
515,89	64000,00
516,35	64000,00
516,81	64000,00
517,27	64000,00
517,73	64000,00
518,19	64000,00
518,65	64000,00
519,11	64000,00
519,57	64000,00
520,03	64000,00
520,49	64000,00
520,95	64000,00
521,41	64000,00
521,87	64000,00
522,33	64000,00
522,79	64000,00
523,25	64000,00
523,71	64000,00
524,17	64000,00
524,63	64000,00
525,09	64000,00
525,55	64000,00
526,01	64000,00
526,47	64000,00
526,93	64000,00
527,39	64000,00
527,85	64000,00
528,31	64000,00
528,77	64000,00
529,23	64000,00
529,69	64000,00
530,15	64000,00
530,61	64000,00
531,07	64000,00
531,53	64000,00
531,99	64000,00
532,45	64000,00
532,91	64000,00
533,37	64000,00
533,83	64000,00
534,29	64000,00
534,75	64000,00
535,21	64000,00
535,67	64000,00
536,12	64000,00
536,58	64000,00
537,04	64000,00
537,50	64000,00
537,96	64000,00
538,42	64000,00
538,88	64000,00
539,34	64000,00
539,80	64000,00
540,26	64000,00
540,72	64000,00
541,18	64000,00
541,63	64000,00
542,09	64000,00
542,55	64000,00
543,01	64000,00
543,47	64000,00
543,93	64000,00
544,39	64000,00
544,85	64000,00
545,31	64000,00
545,76	64000,00
546,22	64000,00
546,68	64000,00
547,14	64000,00
547,60	64000,00
548,06	64000,00
548,52	64000,00
548,98	64000,00
549,43	64000,00
549,89	64000,00
550,35	64000,00
550,81	64000,00
551,27	64000,00
551,73	64000,00
552,19	64000,00
552,64	64000,00
553,10	64000,00
553,56	64000,00
554,02	64000,00
554,48	64000,00
554,93	64000,00
555,39	64000,00
555,85	64000,00
556,31	64000,00
556,77	64000,00
557,23	64000,00
557,68	64000,00
558,14	64000,00
558,60	64000,00
559,06	64000,00
559,52	64000,00
559,97	64000,00
560,43	64000,00
560,89	64000,00
561,35	64000,00
561,81	64000,00
562,26	64000,00
562,72	64000,00
563,18	64000,00
563,64	64000,00
564,09	64000,00
564,55	64000,00
565,01	64000,00
565,47	64000,00
565,92	64000,00
566,38	64000,00
566,84	64000,00
567,30	64000,00
567,75	64000,00
568,21	64000,00
568,67	64000,00
569,13	64000,00
569,58	64000,00
570,04	64000,00
570,50	64000,00
570,96	64000,00
571,41	64000,00
571,87	64000,00
572,33	64000,00
572,78	64000,00
573,24	64000,00
573,70	64000,00
574,16	64000,00
574,61	64000,00
575,07	64000,00
575,53	64000,00
575,98	64000,00
576,44	64000,00
576,90	64000,00
577,36	64000,00
577,81	64000,00
578,27	64000,00
578,73	64000,00
579,18	64000,00
579,64	64000,00
580,10	64000,00
580,55	64000,00
581,01	64000,00
581,47	64000,00
581,92	64000,00
582,38	64000,00
582,84	64000,00
583,29	64000,00
583,75	64000,00
584,21	64000,00
584,66	64000,00
585,12	64000,00
585,57	64000,00
586,03	64000,00
586,49	64000,00
586,94	64000,00
587,40	64000,00
587,86	64000,00
588,31	64000,00
588,77	64000,00
589,22	64000,00
589,68	64000,00
590,14	64000,00
590,59	64000,00
591,05	64000,00
591,51	64000,00
591,96	64000,00
592,42	64000,00
592,87	64000,00
593,33	64000,00
593,78	64000,00
594,24	64000,00
594,70	64000,00
595,15	64000,00
595,61	64000,00
596,06	64000,00
596,52	64000,00
596,98	64000,00
597,43	64000,00
597,89	64000,00
598,34	64000,00
598,80	64000,00
599,25	64000,00
599,71	64000,00
600,16	64000,00
600,62	64000,00
601,08	64000,00
601,53	64000,00
601,99	64000,00
602,44	64000,00
602,90	64000,00
603,35	64000,00
603,81	64000,00
604,26	64000,00
604,72	64000,00
605,17	64000,00
605,63	64000,00
606,08	64000,00
606,54	64000,00
606,99	64000,00
607,45	64000,00
607,90	64000,00
608,36	64000,00
608,81	64000,00
609,27	64000,00
609,72	64000,00
610,18	64000,00
610,63	64000,00
611,09	64000,00
611,54	64000,00
612,00	64000,00
612,45	64000,00
612,91	64000,00
613,36	64000,00
613,82	64000,00
614,27	64000,00
614,73	64000,00
615,18	64000,00
615,64	64000,00
616,09	64000,00
616,54	64000,00
617,00	64000,00
617,45	64000,00
617,91	64000,00
618,36	64000,00
618,82	64000,00
619,27	64000,00
619,72	64000,00
620,18	64000,00
620,63	64000,00
621,09	64000,00
621,54	64000,00
622,00	64000,00
622,45	64000,00
622,90	64000,00
623,36	64000,00
623,81	64000,00
624,27	64000,00
624,72	64000,00
625,17	64000,00
625,63	64000,00
626,08	64000,00
626,54	64000,00
626,99	64000,00
627,44	64000,00
627,90	64000,00
628,35	64000,00
628,81	64000,00
629,26	64000,00
629,71	64000,00
630,17	64000,00
630,62	64000,00
631,07	64000,00
631,53	64000,00
631,98	64000,00
632,43	64000,00
632,89	64000,00
633,34	64000,00
633,79	64000,00
634,25	64000,00
634,70	64000,00
635,15	64000,00
635,61	64000,00
636,06	64000,00
636,51	64000,00
636,97	64000,00
637,42	64000,00
637,87	64000,00
638,33	64000,00
638,78	64000,00
639,23	64000,00
639,69	64000,00
640,14	64000,00
640,59	64000,00
641,05	64000,00
641,50	64000,00
641,95	64000,00
642,40	64000,00
642,86	64000,00
643,31	64000,00
643,76	64000,00
644,22	64000,00
644,67	64000,00
645,12	64000,00
645,57	64000,00
646,03	64000,00
646,48	64000,00
646,93	64000,00
647,38	64000,00
647,84	64000,00
648,29	64000,00
648,74	64000,00
649,19	64000,00
649,65	64000,00
650,10	64000,00
650,55	64000,00
651,00	64000,00
651,46	64000,00
651,91	64000,00
652,36	64000,00
652,81	64000,00
653,27	64000,00
653,72	64000,00
654,17	64000,00
654,62	64000,00
655,07	64000,00
655,53	64000,00
655,98	64000,00
656,43	64000,00
656,88	64000,00
657,33	64000,00
657,79	64000,00
658,24	64000,00
658,69	64000,00
659,14	64000,00
659,59	64000,00
660,05	64000,00
660,50	64000,00
660,95	64000,00
661,40	64000,00
661,85	64000,00
662,30	64000,00
662,76	64000,00
663,21	64000,00
663,66	64000,00
664,11	64000,00
664,56	64000,00
665,01	64000,00
665,47	64000,00
665,92	64000,00
666,37	64000,00
666,82	64000,00
667,27	64000,00
667,72	64000,00
668,17	64000,00
668,62	64000,00
669,08	64000,00
669,53	64000,00
669,98	64000,00
670,43	64000,00
670,88	64000,00
671,33	64000,00
671,78	64000,00
672,23	64000,00
672,69	64000,00
673,14	64000,00
673,59	64000,00
674,04	64000,00
674,49	64000,00
674,94	64000,00
675,39	64000,00
675,84	64000,00
676,29	64000,00
676,74	64000,00
677,19	64000,00
677,64	64000,00
678,10	64000,00
678,55	64000,00
679,00	64000,00
679,45	64000,00
679,90	64000,00
680,35	64000,00
680,80	64000,00
681,25	64000,00
681,70	64000,00
682,15	64000,00
682,60	64000,00
683,05	64000,00
683,50	64000,00
683,95	64000,00
684,40	64000,00
684,85	64000,00
685,30	64000,00
685,75	64000,00
686,20	64000,00
686,65	64000,00
687,10	64000,00
687,55	64000,00
688,00	64000,00
688,45	64000,00
688,90	64000,00
689,35	64000,00
689,80	64000,00
690,25	64000,00
690,70	64000,00
691,15	64000,00
691,60	64000,00
692,05	64000,00
692,50	64000,00
692,95	64000,00
693,40	64000,00
693,85	64000,00
694,30	64000,00
694,75	64000,00
695,20	64000,00
695,65	64000,00
696,10	64000,00
696,55	64000,00
697,00	64000,00
697,45	64000,00
697,90	64000,00
698,35	64000,00
698,80	64000,00
699,24	64000,00
699,69	64000,00
700,14	64000,00
700,59	64000,00
701,04	64000,00
701,49	64000,00
701,94	64000,00
702,39	64000,00
702,84	64000,00
703,29	64000,00
703,74	64000,00
704,19	64000,00
704,63	64000,00
705,08	64000,00
705,53	64000,00
705,98	64000,00
706,43	64000,00
706,88	64000,00
707,33	64000,00
707,78	64000,00
708,22	64000,00
708,67	64000,00
709,12	64000,00
709,57	64000,00
710,02	64000,00
710,47	64000,00
710,92	64000,00
711,37	64000,00
711,81	64000,00
712,26	64000,00
712,71	64000,00
713,16	64000,00
713,61	64000,00
714,06	64000,00
714,50	64000,00
714,95	64000,00
715,40	64000,00
715,85	64000,00
716,30	64000,00
716,75	64000,00
717,19	64000,00
717,64	64000,00
718,09	64000,00
718,54	64000,00
718,99	64000,00
719,43	64000,00
719,88	64000,00
720,33	64000,00
720,78	64000,00
721,23	64000,00
721,67	64000,00
722,12	64000,00
722,57	64000,00
723,02	64000,00
723,47	64000,00
723,91	64000,00
724,36	64000,00
724,81	64000,00
725,26	64000,00
725,70	64000,00
726,15	64000,00
726,60	64000,00
727,05	64000,00
727,49	64000,00
727,94	64000,00
728,39	64000,00
728,84	64000,00
729,28	64000,00
729,73	64000,00
730,18	64000,00
730,63	64000,00
731,07	64000,00
731,52	64000,00
731,97	64000,00
732,41	64000,00
732,86	64000,00
733,31	64000,00
733,76	64000,00
734,20	64000,00
734,65	64000,00
735,10	64000,00
735,54	64000,00
735,99	64000,00
736,44	64000,00
736,89	64000,00
737,33	64000,00
737,78	64000,00
738,23	64000,00
738,67	64000,00
739,12	64000,00
739,57	64000,00
740,01	64000,00
740,46	64000,00
740,91	64000,00
741,35	64000,00
741,80	64000,00
742,25	64000,00
742,69	64000,00
743,14	64000,00
743,59	64000,00
744,03	64000,00
744,48	64000,00
744,92	64000,00
745,37	64000,00
745,82	64000,00
746,26	64000,00
746,71	64000,00
747,16	64000,00
747,60	64000,00
748,05	64000,00
748,49	64000,00
748,94	64000,00
749,39	64000,00
749,83	64000,00
750,28	64000,00
750,73	64000,00
751,17	64000,00
751,62	64000,00
752,06	64000,00
752,51	64000,00
752,95	64000,00
753,40	64000,00
753,85	64000,00
754,29	64000,00
754,74	64000,00
755,18	64000,00
755,63	64000,00
756,07	64000,00
756,52	64000,00
756,97	64000,00
757,41	64000,00
757,86	64000,00
758,30	64000,00
758,75	64000,00
759,19	64000,00
759,64	64000,00
760,08	64000,00
760,53	64000,00
760,98	64000,00
761,42	64000,00
761,87	64000,00
762,31	64000,00
762,76	64000,00
763,20	64000,00
763,65	64000,00
764,09	64000,00
764,54	64000,00
764,98	64000,00
765,43	64000,00
765,87	64000,00
766,32	64000,00
766,76	64000,00
767,21	64000,00
767,65	64000,00
768,10	64000,00
768,54	64000,00
768,99	64000,00
769,43	64000,00
769,88	64000,00
770,32	64000,00
770,77	64000,00
771,21	64000,00
771,65	64000,00
772,10	64000,00
772,54	64000,00
772,99	64000,00
773,43	64000,00
773,88	64000,00
774,32	64000,00
774,77	64000,00
775,21	64000,00
775,65	64000,00
776,10	64000,00
776,54	64000,00
776,99	64000,00
777,43	64000,00
777,88	64000,00
778,32	64000,00
778,76	64000,00
779,21	64000,00
779,65	64000,00
780,10	64000,00
780,54	64000,00
780,99	64000,00
781,43	64000,00
781,87	64000,00
782,32	64000,00
782,76	64000,00
783,20	64000,00
783,65	64000,00
784,09	64000,00
784,54	64000,00
784,98	64000,00
785,42	64000,00
785,87	64000,00
786,31	64000,00
786,75	64000,00
787,20	64000,00
787,64	64000,00
788,09	64000,00
788,53	64000,00
788,97	64000,00
789,42	64000,00
789,86	64000,00
790,30	64000,00
790,75	64000,00
791,19	64000,00
791,63	64000,00
792,08	64000,00
792,52	64000,00
792,96	64000,00
793,41	64000,00
793,85	64000,00
794,29	64000,00
794,74	64000,00
795,18	64000,00
795,62	64000,00
796,06	64000,00
796,51	64000,00
796,95	64000,00
797,39	64000,00
797,84	64000,00
798,28	64000,00
798,72	64000,00
799,16	64000,00
799,61	64000,00
800,05	64000,00
800,49	64000,00
800,94	64000,00
801,38	64000,00
801,82	64000,00
802,26	64000,00
802,71	64000,00
803,15	64000,00
803,59	64000,00
804,03	64000,00
804,48	64000,00
804,92	64000,00
805,36	64000,00
805,80	64000,00
806,25	64000,00
806,69	64000,00
807,13	64000,00
807,57	64000,00
808,01	64000,00
808,46	64000,00
808,90	64000,00
809,34	64000,00
809,78	64000,00
810,23	64000,00
810,67	64000,00
811,11	64000,00
811,55	64000,00
811,99	64000,00
812,44	64000,00
812,88	64000,00
813,32	64000,00
813,76	64000,00
814,20	64000,00
814,64	64000,00
815,09	64000,00
815,53	64000,00
815,97	64000,00
816,41	64000,00
816,85	64000,00
817,29	64000,00
817,74	64000,00
818,18	64000,00
818,62	64000,00
819,06	64000,00
819,50	64000,00
819,94	64000,00
820,39	64000,00
820,83	64000,00
821,27	64000,00
821,71	64000,00
822,15	64000,00
822,59	64000,00
823,03	64000,00
823,47	64000,00
823,92	64000,00
824,36	64000,00
824,80	64000,00
825,24	64000,00
825,68	64000,00
826,12	64000,00
826,56	64000,00
827,00	64000,00
827,44	64000,00
827,88	64000,00
828,33	64000,00
828,77	64000,00
829,21	64000,00
829,65	64000,00
830,09	64000,00
830,53	64000,00
830,97	64000,00
831,41	64000,00
831,85	64000,00
832,29	64000,00
832,73	64000,00
833,17	64000,00
833,61	64000,00
834,05	64000,00
834,49	64000,00
834,93	64000,00
835,37	64000,00
835,82	64000,00
836,26	64000,00
836,70	64000,00
837,14	64000,00
837,58	64000,00
838,02	64000,00
838,46	64000,00
838,90	64000,00
839,34	64000,00
839,78	64000,00
840,22	64000,00
840,66	64000,00
841,10	64000,00
841,54	64000,00
841,98	64000,00
842,42	64000,00
842,86	64000,00
843,30	64000,00
843,74	64000,00
844,18	64000,00
844,62	64000,00
845,06	64000,00
845,50	64000,00
845,94	64000,00
846,37	64000,00
846,81	64000,00
847,25	64000,00
847,69	64000,00
848,13	64000,00
848,57	64000,00
849,01	64000,00
849,45	64000,00
849,89	64000,00
850,33	64000,00
850,77	64000,00
851,21	64000,00
851,65	64000,00
852,09	64000,00
852,53	64000,00
852,97	64000,00
853,40	64000,00
853,84	64000,00
854,28	64000,00
854,72	64000,00
855,16	64000,00
855,60	64000,00
856,04	64000,00
856,48	64000,00
856,92	64000,00
857,36	64000,00
857,79	64000,00
858,23	64000,00
858,67	64000,00
859,11	64000,00
859,55	64000,00
859,99	64000,00
860,43	64000,00
860,87	64000,00
861,30	64000,00
861,74	64000,00
862,18	64000,00
862,62	64000,00
863,06	64000,00
863,50	64000,00
863,94	64000,00
864,37	64000,00
864,81	64000,00
865,25	64000,00
865,69	64000,00
866,13	64000,00
866,57	64000,00
867,00	64000,00
867,44	64000,00
867,88	64000,00
868,32	64000,00
868,76	64000,00
869,19	64000,00
869,63	64000,00
870,07	64000,00
870,51	64000,00
870,95	64000,00
871,38	64000,00
871,82	64000,00
872,26	64000,00
872,70	64000,00
873,14	64000,00
873,57	64000,00
874,01	64000,00
874,45	64000,00
874,89	64000,00
875,32	64000,00
875,76	64000,00
876,20	64000,00
876,64	64000,00
877,07	64000,00
877,51	64000,00
877,95	64000,00
878,39	64000,00
878,82	64000,00
879,26	64000,00
879,70	64000,00
880,14	64000,00
880,57	64000,00
881,01	64000,00
881,45	64000,00
881,89	64000,00
882,32	64000,00
882,76	64000,00
883,20	64000,00
883,63	64000,00
884,07	64000,00
884,51	64000,00
884,94	64000,00
885,38	64000,00
885,82	64000,00
886,26	64000,00
886,69	64000,00
887,13	64000,00
887,57	64000,00
888,00	64000,00
888,44	64000,00
888,88	64000,00
889,31	64000,00
889,75	64000,00
890,19	64000,00
890,62	64000,00
891,06	64000,00
891,50	64000,00
891,93	64000,00
892,37	64000,00
892,81	64000,00
893,24	64000,00
893,68	64000,00
894,11	64000,00
894,55	64000,00
894,99	64000,00
895,42	64000,00
895,86	64000,00
896,30	64000,00
896,73	64000,00
897,17	64000,00
897,60	64000,00
898,04	64000,00
898,48	64000,00
898,91	64000,00
899,35	64000,00
899,78	64000,00
900,22	64000,00
900,66	64000,00
901,09	64000,00
901,53	64000,00
901,96	64000,00
902,40	64000,00
902,84	64000,00
903,27	64000,00
903,71	64000,00
904,14	64000,00
904,58	64000,00
905,01	64000,00
905,45	64000,00
905,88	64000,00
906,32	64000,00
906,76	64000,00
907,19	64000,00
907,63	64000,00
908,06	64000,00
908,50	64000,00
908,93	64000,00
909,37	64000,00
909,80	64000,00
910,24	64000,00
910,67	64000,00
911,11	64000,00
911,54	64000,00
911,98	64000,00
912,41	64000,00
912,85	64000,00
913,28	64000,00
913,72	64000,00
914,15	64000,00
914,59	64000,00
915,02	64000,00
915,46	64000,00
915,89	64000,00
916,33	64000,00
916,76	64000,00
917,20	64000,00
917,63	64000,00
918,07	64000,00
918,50	64000,00
918,94	64000,00
919,37	64000,00
919,81	64000,00
920,24	64000,00
920,67	64000,00
921,11	64000,00
921,54	64000,00
921,98	64000,00
922,41	64000,00
922,85	64000,00
923,28	64000,00
923,72	64000,00
924,15	64000,00
924,58	64000,00
925,02	64000,00
925,45	64000,00
925,89	64000,00
926,32	64000,00
926,75	64000,00
927,19	64000,00
927,62	64000,00
928,06	64000,00
928,49	64000,00
928,92	64000,00
929,36	64000,00
929,79	64000,00
930,23	64000,00
930,66	64000,00
931,09	64000,00
931,53	64000,00
931,96	64000,00
932,39	64000,00
932,83	64000,00
933,26	64000,00
933,70	64000,00
934,13	64000,00
934,56	64000,00
935,00	64000,00
935,43	64000,00
935,86	64000,00
936,30	64000,00
936,73	64000,00
937,16	64000,00
937,60	64000,00
938,03	64000,00
938,46	64000,00
938,90	64000,00
939,33	64000,00
939,76	64000,00
940,19	64000,00
940,63	64000,00
941,06	64000,00
941,49	64000,00
941,93	64000,00
942,36	64000,00
942,79	64000,00
943,23	64000,00
943,66	64000,00
944,09	64000,00
944,52	64000,00
944,96	64000,00
945,39	64000,00
945,82	64000,00
946,26	64000,00
946,69	64000,00
947,12	64000,00
947,55	64000,00
947,99	64000,00
948,42	64000,00
948,85	64000,00
949,28	64000,00
949,72	64000,00
950,15	64000,00
950,58	64000,00
951,01	64000,00
951,45	64000,00
951,88	64000,00
952,31	64000,00
952,74	64000,00
953,17	64000,00
953,61	64000,00
954,04	64000,00
954,47	64000,00
954,90	64000,00
955,33	64000,00
955,77	64000,00
956,20	64000,00
956,63	64000,00
957,06	64000,00
957,49	64000,00
957,93	64000,00
958,36	64000,00
958,79	64000,00
959,22	64000,00
959,65	64000,00
960,08	64000,00
960,52	64000,00
960,95	64000,00
961,38	64000,00
961,81	64000,00
962,24	64000,00
962,67	64000,00
963,11	64000,00
963,54	64000,00
963,97	64000,00
964,40	64000,00
964,83	64000,00
965,26	64000,00
965,69	64000,00
966,13	64000,00
966,56	64000,00
966,99	64000,00
967,42	64000,00
967,85	64000,00
968,28	64000,00
968,71	64000,00
969,14	64000,00
969,57	64000,00
970,01	64000,00
970,44	64000,00
970,87	64000,00
971,30	64000,00
971,73	64000,00
972,16	64000,00
972,59	64000,00
973,02	64000,00
973,45	64000,00
973,88	64000,00
974,31	64000,00
974,74	64000,00
975,17	64000,00
975,61	64000,00
976,04	64000,00
976,47	64000,00
976,90	64000,00
977,33	64000,00
977,76	64000,00
978,19	64000,00
978,62	64000,00
979,05	64000,00
979,48	64000,00
979,91	64000,00
980,34	64000,00
980,77	64000,00
981,20	64000,00
981,63	64000,00
982,06	64000,00
982,49	64000,00
982,92	64000,00
983,35	64000,00
983,78	64000,00
984,21	64000,00
984,64	64000,00
985,07	64000,00
985,50	64000,00
985,93	64000,00
986,36	64000,00
986,79	64000,00
987,22	64000,00
987,65	64000,00
988,08	64000,00
988,51	64000,00
988,94	64000,00
989,37	64000,00
989,80	64000,00
990,23	64000,00
990,66	64000,00
991,09	64000,00
991,51	64000,00
991,94	64000,00
992,37	64000,00
992,80	64000,00
993,23	64000,00
993,66	64000,00
994,09	64000,00
994,52	64000,00
994,95	64000,00
995,38	64000,00
995,81	64000,00
996,24	64000,00
996,67	64000,00
997,09	64000,00
997,52	64000,00
997,95	64000,00
998,38	64000,00
998,81	64000,00
999,24	64000,00
999,67	64000,00
1000,10	64000,00
1000,53	64000,00
1000,95	64000,00
1001,38	64000,00
1001,81	64000,00
1002,24	64000,00
1002,67	64000,00
1003,10	64000,00
1003,53	64000,00
1003,95	64000,00
1004,38	64000,00
1004,81	64000,00
1005,24	64000,00
1005,67	64000,00
1006,10	64000,00
1006,52	64000,00
1006,95	64000,00
1007,38	64000,00
1007,81	64000,00
1008,24	64000,00
1008,67	64000,00
1009,09	64000,00
1009,52	64000,00
1009,95	64000,00
1010,38	64000,00
1010,81	64000,00
1011,23	64000,00
1011,66	64000,00
1012,09	64000,00
1012,52	64000,00
1012,95	64000,00
1013,37	64000,00
1013,80	64000,00
1014,23	64000,00
1014,66	64000,00
1015,08	64000,00
1015,51	64000,00
1015,94	64000,00
1016,37	64000,00
1016,80	64000,00
1017,22	64000,00
1017,65	64000,00
1018,08	64000,00
1018,51	64000,00
1018,93	64000,00
1019,36	64000,00
1019,79	64000,00
1020,21	64000,00
1020,64	64000,00
1021,07	64000,00
1021,50	64000,00
1021,92	64000,00
1022,35	64000,00
1022,78	64000,00
1023,21	64000,00
1023,63	64000,00
1024,06	64000,00
1024,49	64000,00
1024,91	64000,00
1025,34	64000,00
1025,77	64000,00
1026,19	64000,00
1026,62	64000,00
1027,05	64000,00
1027,47	64000,00
1027,90	64000,00
1028,33	64000,00
1028,75	64000,00
1029,18	64000,00
1029,61	64000,00
1030,03	64000,00
1030,46	64000,00
1030,89	64000,00
1031,31	64000,00
1031,74	64000,00
1032,17	64000,00
1032,59	64000,00
1033,02	64000,00
1033,45	64000,00
1033,87	64000,00
1034,30	64000,00
1034,73	64000,00
1035,15	64000,00
1035,58	64000,00
1036,00	64000,00
1036,43	64000,00
1036,86	64000,00
1037,28	64000,00
1037,71	64000,00
1038,13	64000,00
1038,56	64000,00
1038,99	64000,00
1039,41	64000,00
1039,84	64000,00
1040,26	64000,00
1040,69	64000,00
1041,11	64000,00
1041,54	64000,00
1041,97	64000,00
1042,39	64000,00
1042,82	64000,00
1043,24	64000,00
1043,67	64000,00
1044,09	64000,00
1044,52	64000,00
1044,95	64000,00
1045,37	64000,00
1045,80	64000,00
1046,22	64000,00
1046,65	64000,00
1047,07	64000,00
1047,50	64000,00
1047,92	64000,00
1048,35	64000,00
1048,77	64000,00
1049,20	64000,00
1049,62	64000,00
1050,05	64000,00
1050,47	64000,00
1050,90	64000,00
1051,32	64000,00
1051,75	64000,00
1052,17	64000,00
1052,60	64000,00
1053,02	64000,00
1053,45	64000,00
1053,87	64000,00
1054,30	64000,00
1054,72	64000,00
1055,15	64000,00
1055,57	64000,00
1056,00	64000,00
1056,42	64000,00
1056,85	64000,00
1057,27	64000,00
1057,70	64000,00
1058,12	64000,00
1058,54	64000,00
1058,97	64000,00
1059,39	64000,00
1059,82	64000,00
1060,24	64000,00
1060,67	64000,00
1061,09	64000,00
1061,51	64000,00
1061,94	64000,00
1062,36	64000,00
1062,79	64000,00
1063,21	64000,00
1063,64	64000,00
1064,06	64000,00
1064,48	64000,00
1064,91	64000,00
1065,33	64000,00
1065,76	64000,00
1066,18	64000,00
1066,60	64000,00
1067,03	64000,00
1067,45	64000,00
1067,87	64000,00
1068,30	64000,00
1068,72	64000,00
1069,15	63783,10
1069,57	62712,40
1069,99	61590,00
1070,42	61477,00
1070,84	60826,60
1071,26	60045,60
1071,69	58905,30
1072,11	58711,00
1072,53	57835,00
1072,96	57251,00
1073,38	56769,10
1073,80	57010,70
1074,23	56417,50
1074,65	55895,00
1075,07	56043,00
1075,50	55851,20
1075,92	55811,10
1076,34	55383,20
1076,77	55129,50
1077,19	54996,60
1077,61	55047,00
1078,04	54234,20
1078,46	54025,40
1078,88	53660,40
1079,30	51982,60
1079,73	51776,80
1080,15	50683,70
1080,57	49947,00
1081,00	49329,90
1081,42	48518,30
1081,84	47916,20
1082,26	47517,70
1082,69	46832,50
1083,11	46300,50
1083,53	45905,00
1083,95	45524,70
1084,38	45489,30
1084,80	44798,20
1085,22	44423,40
1085,64	44679,20
1086,07	43806,70
1086,49	43768,50
1086,91	43781,70
1087,33	43157,90
1087,76	43628,10
1088,18	52149,90
1088,60	43416,50
1089,02	42591,10
1089,45	42323,40
1089,87	41949,30
1090,29	41850,80
1090,71	40992,10
1091,13	40047,10
1091,56	39551,90
1091,98	38877,60
1092,40	38100,30
1092,82	37738,70
1093,24	37005,40
1093,66	36632,80
1094,09	35987,00
1094,51	35636,30
1094,93	35191,50
1095,35	34944,90
1095,77	34345,60
1096,19	34284,50
1096,62	34242,60
1097,04	33540,80
1097,46	33562,20
1097,88	33188,50
1098,30	33384,70
1098,72	33235,00
1099,15	32894,50
1099,57	32556,20
1099,99	32236,30
1100,41	31670,10
1100,83	31277,80
1101,25	30617,70
1101,67	30146,00
1102,09	29051,00
1102,52	28609,50
1102,94	28295,60
1103,36	27911,90
1103,78	27595,30
1104,20	27095,00
1104,62	27647,30
1105,04	26352,40
1105,46	26831,10
1105,88	26647,80
1106,30	26357,60
1106,73	26326,90
1107,15	25506,20
1107,57	25374,10
1107,99	25747,80
1108,41	24460,30
1108,83	24429,70
1109,25	23816,20
1109,67	23329,90
1110,09	22275,30
1110,51	22328,80
1110,93	21775,80
1111,35	21865,50
1111,77	21532,80
1112,19	21521,80
1112,61	21219,20
1113,03	21142,60
1113,45	20360,00
1113,87	19667,60
1114,29	19177,60
1114,71	18723,20
1115,13	17992,00
1115,55	18003,20
1115,98	17545,30
1116,40	16296,30
1116,82	15231,20
1117,24	13982,50
1117,66	13498,20
1118,08	1956,90
1118,50	2211,30
1118,91	2184,20
1119,33	2185,00
>>>>>End Processed Spectral Data<<<<<
