SpectraSuite Data File
++++++++++++++++++++++++++++++++++++
Date: Wed Mar 12 09:33:13 EET 2014
User: OO Maya
Dark Spectrum Present: No
Reference Spectrum Present: No
Number of Sampled Component Spectra: 1
Spectrometers: MAYP11278
Integration Time (usec): 5000000 (MAYP11278)
Spectra Averaged: 10 (MAYP11278)
Boxcar Smoothing: 0 (MAYP11278)
Correct for Electrical Dark: No (MAYP11278)
Strobe/Lamp Enabled: No (MAYP11278)
Correct for Detector Non-linearity: No (MAYP11278)
Correct for Stray Light: No (MAYP11278)
Number of Pixels in Processed Spectrum: 2068
>>>>>Begin Processed Spectral Data<<<<<
188,05	2303,20
188,53	2221,40
189,01	2190,30
189,49	2193,70
189,96	9118,20
190,44	9994,00
190,92	10304,30
191,40	10597,00
191,88	11131,70
192,36	10652,20
192,83	10522,10
193,31	10201,70
193,79	10655,80
194,27	10549,40
194,75	10804,70
195,23	10486,10
195,70	11059,10
196,18	10478,20
196,66	10635,80
197,14	11862,30
197,62	10714,00
198,09	10307,20
198,57	10494,70
199,05	10398,20
199,53	10882,80
200,01	11095,40
200,48	10532,30
200,96	10600,90
201,44	11066,20
201,92	10994,40
202,39	10979,60
202,87	10222,10
203,35	10857,00
203,83	10363,30
204,31	11061,40
204,78	11316,40
205,26	10499,80
205,74	10471,90
206,22	11322,30
206,69	10619,70
207,17	10863,40
207,65	11990,80
208,13	10704,20
208,60	11035,70
209,08	10614,50
209,56	11182,40
210,04	11046,50
210,51	10713,70
210,99	10707,60
211,47	10944,70
211,94	10720,90
212,42	10486,70
212,90	11603,30
213,38	11007,50
213,85	10553,50
214,33	11520,50
214,81	10882,70
215,29	11467,20
215,76	10909,00
216,24	11124,20
216,72	11078,00
217,19	11084,60
217,67	10472,00
218,15	10705,30
218,62	11346,90
219,10	10194,90
219,58	10469,80
220,05	10527,20
220,53	10728,20
221,01	12715,90
221,49	10548,50
221,96	11282,00
222,44	10543,40
222,92	11224,60
223,39	10703,50
223,87	11265,90
224,35	10753,70
224,82	10706,30
225,30	10371,10
225,78	10724,40
226,25	10500,80
226,73	10897,20
227,21	11362,30
227,68	10771,00
228,16	11077,40
228,63	11200,10
229,11	11124,70
229,59	10785,90
230,06	10848,30
230,54	10649,80
231,02	11164,20
231,49	11222,40
231,97	10851,90
232,45	10935,50
232,92	10446,80
233,40	10939,80
233,87	11024,60
234,35	12593,10
234,83	11097,10
235,30	10642,30
235,78	10582,40
236,25	10334,50
236,73	11331,50
237,21	11887,60
237,68	10691,90
238,16	10986,10
238,63	10958,80
239,11	10926,00
239,59	10835,90
240,06	10374,90
240,54	11169,30
241,01	11491,00
241,49	11044,70
241,96	10839,40
242,44	11305,00
242,92	11493,70
243,39	10449,40
243,87	10640,80
244,34	11318,70
244,82	11529,70
245,29	10779,70
245,77	11603,90
246,24	11470,30
246,72	10662,50
247,20	10995,60
247,67	10986,40
248,15	11061,70
248,62	11174,60
249,10	10328,00
249,57	11001,60
250,05	11301,40
250,52	11084,60
251,00	11604,10
251,47	11023,10
251,95	11940,70
252,42	11603,80
252,90	10813,20
253,37	11631,10
253,85	11073,60
254,32	10991,30
254,80	11197,50
255,27	11138,20
255,75	11386,40
256,22	10763,90
256,70	11136,10
257,17	11259,50
257,65	11540,60
258,12	12430,10
258,60	11127,20
259,07	10820,00
259,55	11111,70
260,02	11355,70
260,50	11906,80
260,97	11029,40
261,45	10939,70
261,92	11601,10
262,40	10789,20
262,87	11240,80
263,35	11119,40
263,82	10565,40
264,30	11471,20
264,77	11587,20
265,25	10873,70
265,72	11149,20
266,19	11281,50
266,67	11395,60
267,14	11029,60
267,62	11113,80
268,09	11334,50
268,57	11422,00
269,04	10549,80
269,51	10887,20
269,99	11006,60
270,46	11453,30
270,94	11677,10
271,41	10997,70
271,89	11203,10
272,36	10664,70
272,83	10672,40
273,31	10399,80
273,78	11206,40
274,26	12966,60
274,73	11640,60
275,20	11664,50
275,68	11035,60
276,15	11232,40
276,63	11477,30
277,10	11645,20
277,57	10768,10
278,05	11201,60
278,52	10784,40
279,00	13219,60
279,47	11060,20
279,94	11034,10
280,42	13121,20
280,89	11780,40
281,36	12881,70
281,84	11082,00
282,31	11901,30
282,78	11234,30
283,26	11298,80
283,73	11564,10
284,21	10932,60
284,68	10851,80
285,15	11688,90
285,63	11260,30
286,10	11500,40
286,57	11483,60
287,05	10827,00
287,52	11637,30
287,99	12223,00
288,47	11403,60
288,94	11794,30
289,41	10713,20
289,89	12238,70
290,36	11200,20
290,83	11661,80
291,30	11225,20
291,78	11686,00
292,25	12514,20
292,72	11140,70
293,20	12033,70
293,67	11344,60
294,14	11840,60
294,62	11864,70
295,09	11448,10
295,56	11707,10
296,03	11911,20
296,51	12689,80
296,98	12531,90
297,45	12105,20
297,93	11931,30
298,40	11931,30
298,87	11568,80
299,34	12444,50
299,82	11711,30
300,29	11971,80
300,76	11554,80
301,23	12304,40
301,71	12385,00
302,18	12390,30
302,65	11582,00
303,12	12420,80
303,60	12492,70
304,07	11757,10
304,54	11953,80
305,01	11772,50
305,49	12143,40
305,96	12249,70
306,43	12253,20
306,90	12368,90
307,38	11936,60
307,85	11893,60
308,32	12268,60
308,79	11950,40
309,27	12612,00
309,74	12726,30
310,21	12512,00
310,68	12451,00
311,15	12618,50
311,63	12187,70
312,10	12908,60
312,57	12423,60
313,04	13290,50
313,51	12182,80
313,99	12303,90
314,46	12484,70
314,93	12274,20
315,40	12190,10
315,87	12972,70
316,34	12887,10
316,82	12721,80
317,29	12937,70
317,76	12790,00
318,23	14154,30
318,70	12844,20
319,17	12758,80
319,65	12371,30
320,12	13112,80
320,59	13896,40
321,06	13361,40
321,53	12894,30
322,00	12359,50
322,48	12641,30
322,95	13832,20
323,42	12835,50
323,89	14096,60
324,36	12414,10
324,83	13190,00
325,30	13148,10
325,78	13162,00
326,25	13303,10
326,72	13296,40
327,19	13943,20
327,66	13922,50
328,13	13988,80
328,60	13810,80
329,07	13611,40
329,54	13468,10
330,02	13493,90
330,49	13278,30
330,96	13978,40
331,43	13693,20
331,90	14241,80
332,37	13254,30
332,84	14771,50
333,31	14412,00
333,78	14577,20
334,25	14992,90
334,72	14610,40
335,20	14868,80
335,67	16460,70
336,14	14347,00
336,61	14773,60
337,08	14512,70
337,55	14798,80
338,02	14456,80
338,49	14487,00
338,96	15320,30
339,43	15006,30
339,90	14118,90
340,37	14355,70
340,84	14223,00
341,31	14890,30
341,78	15173,10
342,25	14600,00
342,72	14891,00
343,19	15185,50
343,67	14915,70
344,14	14629,30
344,61	14810,90
345,08	14475,40
345,55	14819,70
346,02	15108,90
346,49	14610,20
346,96	14535,10
347,43	15631,90
347,90	14704,70
348,37	15419,20
348,84	15058,10
349,31	14490,00
349,78	15148,70
350,25	15552,50
350,72	15188,10
351,19	14825,50
351,66	15398,40
352,13	16140,50
352,60	15405,80
353,07	15238,90
353,54	15474,10
354,01	15677,60
354,48	15637,20
354,94	15870,40
355,41	15731,40
355,88	16419,80
356,35	15476,60
356,82	16578,00
357,29	15436,90
357,76	16998,80
358,23	16296,40
358,70	15596,80
359,17	15683,20
359,64	15967,80
360,11	16071,20
360,58	16737,90
361,05	17063,80
361,52	16284,40
361,99	16443,40
362,46	16574,70
362,93	16538,90
363,39	16605,00
363,86	17864,60
364,33	17098,10
364,80	16650,80
365,27	17332,90
365,74	16918,40
366,21	16787,70
366,68	17426,40
367,15	17426,40
367,62	25636,60
368,09	16833,10
368,55	17328,90
369,02	18212,10
369,49	17435,00
369,96	18363,10
370,43	18155,80
370,90	17997,50
371,37	17986,80
371,84	18589,30
372,31	18123,80
372,77	17935,10
373,24	18456,60
373,71	18834,70
374,18	18469,00
374,65	18760,90
375,12	19333,40
375,59	18669,10
376,05	20209,10
376,52	19490,60
376,99	19295,70
377,46	19362,80
377,93	20181,70
378,40	20271,50
378,86	20306,40
379,33	20385,10
379,80	20542,60
380,27	20935,70
380,74	21616,40
381,21	21119,10
381,67	21884,60
382,14	22021,10
382,61	20991,50
383,08	21875,50
383,55	21669,50
384,02	22498,70
384,48	22226,30
384,95	24876,30
385,42	22639,90
385,89	22518,00
386,36	22830,10
386,82	23938,70
387,29	22940,20
387,76	22932,80
388,23	24040,90
388,69	23923,40
389,16	24494,00
389,63	23866,40
390,10	24571,10
390,57	24722,40
391,03	24983,30
391,50	25165,20
391,97	25269,20
392,44	25564,50
392,90	25527,60
393,37	25710,40
393,84	27178,80
394,31	26256,70
394,77	27043,40
395,24	26446,70
395,71	27232,90
396,18	29477,10
396,64	26900,30
397,11	27861,80
397,58	28243,30
398,05	27647,80
398,51	28265,60
398,98	28247,90
399,45	28315,90
399,92	29427,90
400,38	28772,30
400,85	29332,60
401,32	29411,30
401,78	30009,50
402,25	30284,10
402,72	30348,60
403,18	30277,90
403,65	31571,20
404,12	31008,90
404,59	32016,80
405,05	32425,80
405,52	32450,00
405,99	31814,30
406,45	32772,40
406,92	32845,70
407,39	33884,20
407,85	33067,10
408,32	33439,40
408,79	33934,90
409,25	33421,20
409,72	34607,30
410,19	34024,70
410,65	35242,80
411,12	34632,40
411,59	35682,90
412,05	35309,80
412,52	35086,40
412,99	36135,20
413,45	36138,30
413,92	36648,70
414,39	37111,00
414,85	37875,70
415,32	37260,00
415,78	38353,80
416,25	38018,70
416,72	38196,50
417,18	39297,10
417,65	38887,70
418,12	38835,20
418,58	39264,20
419,05	39605,20
419,51	40171,50
419,98	39854,20
420,45	40782,50
420,91	40302,50
421,38	41013,60
421,84	41141,90
422,31	41883,50
422,78	41739,60
423,24	42168,60
423,71	42711,00
424,17	43234,80
424,64	43113,90
425,11	43798,60
425,57	43771,70
426,04	44663,00
426,50	44273,40
426,97	45215,20
427,43	45414,10
427,90	45809,20
428,37	45199,30
428,83	46457,90
429,30	46539,30
429,76	46686,50
430,23	47206,50
430,69	48837,60
431,16	47298,10
431,62	47907,30
432,09	49087,90
432,55	49083,50
433,02	49038,50
433,48	49107,70
433,95	49736,50
434,42	50075,30
434,88	50780,10
435,35	50495,90
435,81	51586,40
436,28	51788,80
436,74	51459,00
437,21	52611,00
437,67	52898,30
438,14	53110,30
438,60	53112,80
439,07	53561,10
439,53	55864,00
440,00	54587,00
440,46	55133,60
440,93	55642,10
441,39	55212,70
441,86	55699,70
442,32	57317,60
442,79	56147,10
443,25	56895,00
443,72	57369,50
444,18	57274,60
444,64	58744,40
445,11	58722,90
445,57	58855,00
446,04	59179,80
446,50	59724,60
446,97	59982,30
447,43	60281,60
447,90	60487,90
448,36	60840,80
448,83	61727,80
449,29	62141,40
449,75	62249,70
450,22	62423,30
450,68	62674,40
451,15	63256,70
451,61	63997,20
452,08	64000,00
452,54	64000,00
453,00	64000,00
453,47	64000,00
453,93	64000,00
454,40	64000,00
454,86	64000,00
455,32	64000,00
455,79	64000,00
456,25	64000,00
456,72	64000,00
457,18	64000,00
457,64	64000,00
458,11	64000,00
458,57	64000,00
459,04	64000,00
459,50	64000,00
459,96	64000,00
460,43	64000,00
460,89	64000,00
461,36	64000,00
461,82	64000,00
462,28	64000,00
462,75	64000,00
463,21	64000,00
463,67	64000,00
464,14	64000,00
464,60	64000,00
465,06	64000,00
465,53	64000,00
465,99	64000,00
466,45	64000,00
466,92	64000,00
467,38	64000,00
467,84	64000,00
468,31	64000,00
468,77	64000,00
469,23	64000,00
469,70	64000,00
470,16	64000,00
470,62	64000,00
471,09	64000,00
471,55	64000,00
472,01	64000,00
472,48	64000,00
472,94	64000,00
473,40	64000,00
473,87	64000,00
474,33	64000,00
474,79	64000,00
475,25	64000,00
475,72	64000,00
476,18	64000,00
476,64	64000,00
477,11	64000,00
477,57	64000,00
478,03	64000,00
478,49	64000,00
478,96	64000,00
479,42	64000,00
479,88	64000,00
480,35	64000,00
480,81	64000,00
481,27	64000,00
481,73	64000,00
482,20	64000,00
482,66	64000,00
483,12	64000,00
483,58	64000,00
484,05	64000,00
484,51	64000,00
484,97	64000,00
485,43	64000,00
485,89	64000,00
486,36	64000,00
486,82	64000,00
487,28	64000,00
487,74	64000,00
488,21	64000,00
488,67	64000,00
489,13	64000,00
489,59	64000,00
490,05	64000,00
490,52	64000,00
490,98	64000,00
491,44	64000,00
491,90	64000,00
492,36	64000,00
492,83	64000,00
493,29	64000,00
493,75	64000,00
494,21	64000,00
494,67	64000,00
495,14	64000,00
495,60	64000,00
496,06	64000,00
496,52	64000,00
496,98	64000,00
497,44	64000,00
497,91	64000,00
498,37	64000,00
498,83	64000,00
499,29	64000,00
499,75	64000,00
500,21	64000,00
500,67	64000,00
501,14	64000,00
501,60	64000,00
502,06	64000,00
502,52	64000,00
502,98	64000,00
503,44	64000,00
503,90	64000,00
504,37	64000,00
504,83	64000,00
505,29	64000,00
505,75	64000,00
506,21	64000,00
506,67	64000,00
507,13	64000,00
507,59	64000,00
508,05	64000,00
508,51	64000,00
508,98	64000,00
509,44	64000,00
509,90	64000,00
510,36	64000,00
510,82	64000,00
511,28	64000,00
511,74	64000,00
512,20	64000,00
512,66	64000,00
513,12	64000,00
513,58	64000,00
514,04	64000,00
514,51	64000,00
514,97	64000,00
515,43	64000,00
515,89	64000,00
516,35	64000,00
516,81	64000,00
517,27	64000,00
517,73	64000,00
518,19	64000,00
518,65	64000,00
519,11	64000,00
519,57	64000,00
520,03	64000,00
520,49	64000,00
520,95	64000,00
521,41	64000,00
521,87	64000,00
522,33	64000,00
522,79	64000,00
523,25	64000,00
523,71	64000,00
524,17	64000,00
524,63	64000,00
525,09	64000,00
525,55	64000,00
526,01	64000,00
526,47	64000,00
526,93	64000,00
527,39	64000,00
527,85	64000,00
528,31	64000,00
528,77	64000,00
529,23	64000,00
529,69	64000,00
530,15	64000,00
530,61	64000,00
531,07	64000,00
531,53	64000,00
531,99	64000,00
532,45	64000,00
532,91	64000,00
533,37	64000,00
533,83	64000,00
534,29	64000,00
534,75	64000,00
535,21	64000,00
535,67	64000,00
536,12	64000,00
536,58	64000,00
537,04	64000,00
537,50	64000,00
537,96	64000,00
538,42	64000,00
538,88	64000,00
539,34	64000,00
539,80	64000,00
540,26	64000,00
540,72	64000,00
541,18	64000,00
541,63	64000,00
542,09	64000,00
542,55	64000,00
543,01	64000,00
543,47	64000,00
543,93	64000,00
544,39	64000,00
544,85	64000,00
545,31	64000,00
545,76	64000,00
546,22	64000,00
546,68	64000,00
547,14	64000,00
547,60	64000,00
548,06	64000,00
548,52	64000,00
548,98	64000,00
549,43	64000,00
549,89	64000,00
550,35	64000,00
550,81	64000,00
551,27	64000,00
551,73	64000,00
552,19	64000,00
552,64	64000,00
553,10	64000,00
553,56	64000,00
554,02	64000,00
554,48	64000,00
554,93	64000,00
555,39	64000,00
555,85	64000,00
556,31	64000,00
556,77	64000,00
557,23	64000,00
557,68	64000,00
558,14	64000,00
558,60	64000,00
559,06	64000,00
559,52	64000,00
559,97	64000,00
560,43	64000,00
560,89	64000,00
561,35	64000,00
561,81	64000,00
562,26	64000,00
562,72	64000,00
563,18	64000,00
563,64	64000,00
564,09	64000,00
564,55	64000,00
565,01	64000,00
565,47	64000,00
565,92	64000,00
566,38	64000,00
566,84	64000,00
567,30	64000,00
567,75	64000,00
568,21	64000,00
568,67	64000,00
569,13	64000,00
569,58	64000,00
570,04	64000,00
570,50	64000,00
570,96	64000,00
571,41	64000,00
571,87	64000,00
572,33	64000,00
572,78	64000,00
573,24	64000,00
573,70	64000,00
574,16	64000,00
574,61	64000,00
575,07	64000,00
575,53	64000,00
575,98	64000,00
576,44	64000,00
576,90	64000,00
577,36	64000,00
577,81	64000,00
578,27	64000,00
578,73	64000,00
579,18	64000,00
579,64	64000,00
580,10	64000,00
580,55	64000,00
581,01	64000,00
581,47	64000,00
581,92	64000,00
582,38	64000,00
582,84	64000,00
583,29	64000,00
583,75	64000,00
584,21	64000,00
584,66	64000,00
585,12	64000,00
585,57	64000,00
586,03	64000,00
586,49	64000,00
586,94	64000,00
587,40	64000,00
587,86	64000,00
588,31	64000,00
588,77	64000,00
589,22	64000,00
589,68	64000,00
590,14	64000,00
590,59	64000,00
591,05	64000,00
591,51	64000,00
591,96	64000,00
592,42	64000,00
592,87	64000,00
593,33	64000,00
593,78	64000,00
594,24	64000,00
594,70	64000,00
595,15	64000,00
595,61	64000,00
596,06	64000,00
596,52	64000,00
596,98	64000,00
597,43	64000,00
597,89	64000,00
598,34	64000,00
598,80	64000,00
599,25	64000,00
599,71	64000,00
600,16	64000,00
600,62	64000,00
601,08	64000,00
601,53	64000,00
601,99	64000,00
602,44	64000,00
602,90	64000,00
603,35	64000,00
603,81	64000,00
604,26	64000,00
604,72	64000,00
605,17	64000,00
605,63	64000,00
606,08	64000,00
606,54	64000,00
606,99	64000,00
607,45	64000,00
607,90	64000,00
608,36	64000,00
608,81	64000,00
609,27	64000,00
609,72	64000,00
610,18	64000,00
610,63	64000,00
611,09	64000,00
611,54	64000,00
612,00	64000,00
612,45	64000,00
612,91	64000,00
613,36	64000,00
613,82	64000,00
614,27	64000,00
614,73	64000,00
615,18	64000,00
615,64	64000,00
616,09	64000,00
616,54	64000,00
617,00	64000,00
617,45	64000,00
617,91	64000,00
618,36	64000,00
618,82	64000,00
619,27	64000,00
619,72	64000,00
620,18	64000,00
620,63	64000,00
621,09	64000,00
621,54	64000,00
622,00	64000,00
622,45	64000,00
622,90	64000,00
623,36	64000,00
623,81	64000,00
624,27	64000,00
624,72	64000,00
625,17	64000,00
625,63	64000,00
626,08	64000,00
626,54	64000,00
626,99	64000,00
627,44	64000,00
627,90	64000,00
628,35	64000,00
628,81	64000,00
629,26	64000,00
629,71	64000,00
630,17	64000,00
630,62	64000,00
631,07	64000,00
631,53	64000,00
631,98	64000,00
632,43	64000,00
632,89	64000,00
633,34	64000,00
633,79	64000,00
634,25	64000,00
634,70	64000,00
635,15	64000,00
635,61	64000,00
636,06	64000,00
636,51	64000,00
636,97	64000,00
637,42	64000,00
637,87	64000,00
638,33	64000,00
638,78	64000,00
639,23	64000,00
639,69	64000,00
640,14	64000,00
640,59	64000,00
641,05	64000,00
641,50	64000,00
641,95	64000,00
642,40	64000,00
642,86	64000,00
643,31	64000,00
643,76	64000,00
644,22	64000,00
644,67	64000,00
645,12	64000,00
645,57	64000,00
646,03	64000,00
646,48	64000,00
646,93	64000,00
647,38	64000,00
647,84	64000,00
648,29	64000,00
648,74	64000,00
649,19	64000,00
649,65	64000,00
650,10	64000,00
650,55	64000,00
651,00	64000,00
651,46	64000,00
651,91	64000,00
652,36	64000,00
652,81	64000,00
653,27	64000,00
653,72	64000,00
654,17	64000,00
654,62	64000,00
655,07	64000,00
655,53	64000,00
655,98	64000,00
656,43	64000,00
656,88	64000,00
657,33	64000,00
657,79	64000,00
658,24	64000,00
658,69	64000,00
659,14	64000,00
659,59	64000,00
660,05	64000,00
660,50	64000,00
660,95	64000,00
661,40	64000,00
661,85	64000,00
662,30	64000,00
662,76	64000,00
663,21	64000,00
663,66	64000,00
664,11	64000,00
664,56	64000,00
665,01	64000,00
665,47	64000,00
665,92	64000,00
666,37	64000,00
666,82	64000,00
667,27	64000,00
667,72	64000,00
668,17	64000,00
668,62	64000,00
669,08	64000,00
669,53	64000,00
669,98	64000,00
670,43	64000,00
670,88	64000,00
671,33	64000,00
671,78	64000,00
672,23	64000,00
672,69	64000,00
673,14	64000,00
673,59	64000,00
674,04	64000,00
674,49	64000,00
674,94	64000,00
675,39	64000,00
675,84	64000,00
676,29	64000,00
676,74	64000,00
677,19	64000,00
677,64	64000,00
678,10	64000,00
678,55	64000,00
679,00	64000,00
679,45	64000,00
679,90	64000,00
680,35	64000,00
680,80	64000,00
681,25	64000,00
681,70	64000,00
682,15	64000,00
682,60	64000,00
683,05	64000,00
683,50	64000,00
683,95	64000,00
684,40	64000,00
684,85	64000,00
685,30	64000,00
685,75	64000,00
686,20	64000,00
686,65	64000,00
687,10	64000,00
687,55	64000,00
688,00	64000,00
688,45	64000,00
688,90	64000,00
689,35	64000,00
689,80	64000,00
690,25	64000,00
690,70	64000,00
691,15	64000,00
691,60	64000,00
692,05	64000,00
692,50	64000,00
692,95	64000,00
693,40	64000,00
693,85	64000,00
694,30	64000,00
694,75	64000,00
695,20	64000,00
695,65	64000,00
696,10	64000,00
696,55	64000,00
697,00	64000,00
697,45	64000,00
697,90	64000,00
698,35	64000,00
698,80	64000,00
699,24	64000,00
699,69	64000,00
700,14	64000,00
700,59	64000,00
701,04	64000,00
701,49	64000,00
701,94	64000,00
702,39	64000,00
702,84	64000,00
703,29	64000,00
703,74	64000,00
704,19	64000,00
704,63	64000,00
705,08	64000,00
705,53	64000,00
705,98	64000,00
706,43	64000,00
706,88	64000,00
707,33	64000,00
707,78	64000,00
708,22	64000,00
708,67	64000,00
709,12	64000,00
709,57	64000,00
710,02	64000,00
710,47	64000,00
710,92	64000,00
711,37	64000,00
711,81	64000,00
712,26	64000,00
712,71	64000,00
713,16	64000,00
713,61	64000,00
714,06	64000,00
714,50	64000,00
714,95	64000,00
715,40	64000,00
715,85	64000,00
716,30	64000,00
716,75	64000,00
717,19	64000,00
717,64	64000,00
718,09	64000,00
718,54	64000,00
718,99	64000,00
719,43	64000,00
719,88	64000,00
720,33	64000,00
720,78	64000,00
721,23	64000,00
721,67	64000,00
722,12	64000,00
722,57	64000,00
723,02	64000,00
723,47	64000,00
723,91	64000,00
724,36	64000,00
724,81	64000,00
725,26	64000,00
725,70	64000,00
726,15	64000,00
726,60	64000,00
727,05	64000,00
727,49	64000,00
727,94	64000,00
728,39	64000,00
728,84	64000,00
729,28	64000,00
729,73	64000,00
730,18	64000,00
730,63	64000,00
731,07	64000,00
731,52	64000,00
731,97	64000,00
732,41	64000,00
732,86	64000,00
733,31	64000,00
733,76	64000,00
734,20	64000,00
734,65	64000,00
735,10	64000,00
735,54	64000,00
735,99	64000,00
736,44	64000,00
736,89	64000,00
737,33	64000,00
737,78	64000,00
738,23	64000,00
738,67	64000,00
739,12	64000,00
739,57	64000,00
740,01	64000,00
740,46	64000,00
740,91	64000,00
741,35	64000,00
741,80	64000,00
742,25	64000,00
742,69	64000,00
743,14	64000,00
743,59	64000,00
744,03	64000,00
744,48	64000,00
744,92	64000,00
745,37	64000,00
745,82	64000,00
746,26	64000,00
746,71	64000,00
747,16	64000,00
747,60	64000,00
748,05	64000,00
748,49	64000,00
748,94	64000,00
749,39	64000,00
749,83	64000,00
750,28	64000,00
750,73	64000,00
751,17	64000,00
751,62	64000,00
752,06	64000,00
752,51	64000,00
752,95	64000,00
753,40	64000,00
753,85	64000,00
754,29	64000,00
754,74	64000,00
755,18	64000,00
755,63	64000,00
756,07	64000,00
756,52	64000,00
756,97	64000,00
757,41	64000,00
757,86	64000,00
758,30	64000,00
758,75	64000,00
759,19	64000,00
759,64	64000,00
760,08	64000,00
760,53	64000,00
760,98	64000,00
761,42	64000,00
761,87	64000,00
762,31	64000,00
762,76	64000,00
763,20	64000,00
763,65	64000,00
764,09	64000,00
764,54	64000,00
764,98	64000,00
765,43	64000,00
765,87	64000,00
766,32	64000,00
766,76	64000,00
767,21	64000,00
767,65	64000,00
768,10	64000,00
768,54	64000,00
768,99	64000,00
769,43	64000,00
769,88	64000,00
770,32	64000,00
770,77	64000,00
771,21	64000,00
771,65	64000,00
772,10	64000,00
772,54	64000,00
772,99	64000,00
773,43	64000,00
773,88	64000,00
774,32	64000,00
774,77	64000,00
775,21	64000,00
775,65	64000,00
776,10	64000,00
776,54	64000,00
776,99	64000,00
777,43	64000,00
777,88	64000,00
778,32	64000,00
778,76	64000,00
779,21	64000,00
779,65	64000,00
780,10	64000,00
780,54	64000,00
780,99	64000,00
781,43	64000,00
781,87	64000,00
782,32	64000,00
782,76	64000,00
783,20	64000,00
783,65	64000,00
784,09	64000,00
784,54	64000,00
784,98	64000,00
785,42	64000,00
785,87	64000,00
786,31	64000,00
786,75	64000,00
787,20	64000,00
787,64	64000,00
788,09	64000,00
788,53	64000,00
788,97	64000,00
789,42	64000,00
789,86	64000,00
790,30	64000,00
790,75	64000,00
791,19	64000,00
791,63	64000,00
792,08	64000,00
792,52	64000,00
792,96	64000,00
793,41	64000,00
793,85	64000,00
794,29	64000,00
794,74	64000,00
795,18	64000,00
795,62	64000,00
796,06	64000,00
796,51	64000,00
796,95	64000,00
797,39	64000,00
797,84	64000,00
798,28	64000,00
798,72	64000,00
799,16	64000,00
799,61	64000,00
800,05	64000,00
800,49	64000,00
800,94	64000,00
801,38	64000,00
801,82	64000,00
802,26	64000,00
802,71	64000,00
803,15	64000,00
803,59	64000,00
804,03	64000,00
804,48	64000,00
804,92	64000,00
805,36	64000,00
805,80	64000,00
806,25	64000,00
806,69	64000,00
807,13	64000,00
807,57	64000,00
808,01	64000,00
808,46	64000,00
808,90	64000,00
809,34	64000,00
809,78	64000,00
810,23	64000,00
810,67	64000,00
811,11	64000,00
811,55	64000,00
811,99	64000,00
812,44	64000,00
812,88	64000,00
813,32	64000,00
813,76	64000,00
814,20	64000,00
814,64	64000,00
815,09	64000,00
815,53	64000,00
815,97	64000,00
816,41	64000,00
816,85	64000,00
817,29	64000,00
817,74	64000,00
818,18	64000,00
818,62	64000,00
819,06	64000,00
819,50	64000,00
819,94	64000,00
820,39	64000,00
820,83	64000,00
821,27	64000,00
821,71	64000,00
822,15	64000,00
822,59	64000,00
823,03	64000,00
823,47	64000,00
823,92	64000,00
824,36	64000,00
824,80	64000,00
825,24	64000,00
825,68	64000,00
826,12	64000,00
826,56	64000,00
827,00	64000,00
827,44	64000,00
827,88	64000,00
828,33	64000,00
828,77	64000,00
829,21	64000,00
829,65	64000,00
830,09	64000,00
830,53	64000,00
830,97	64000,00
831,41	64000,00
831,85	64000,00
832,29	64000,00
832,73	64000,00
833,17	64000,00
833,61	64000,00
834,05	64000,00
834,49	64000,00
834,93	64000,00
835,37	64000,00
835,82	64000,00
836,26	64000,00
836,70	64000,00
837,14	64000,00
837,58	64000,00
838,02	64000,00
838,46	64000,00
838,90	64000,00
839,34	64000,00
839,78	64000,00
840,22	64000,00
840,66	64000,00
841,10	64000,00
841,54	64000,00
841,98	64000,00
842,42	64000,00
842,86	64000,00
843,30	64000,00
843,74	64000,00
844,18	64000,00
844,62	64000,00
845,06	64000,00
845,50	64000,00
845,94	64000,00
846,37	64000,00
846,81	64000,00
847,25	64000,00
847,69	64000,00
848,13	64000,00
848,57	64000,00
849,01	64000,00
849,45	64000,00
849,89	64000,00
850,33	64000,00
850,77	64000,00
851,21	64000,00
851,65	64000,00
852,09	64000,00
852,53	64000,00
852,97	64000,00
853,40	64000,00
853,84	64000,00
854,28	64000,00
854,72	64000,00
855,16	64000,00
855,60	64000,00
856,04	64000,00
856,48	64000,00
856,92	64000,00
857,36	64000,00
857,79	64000,00
858,23	64000,00
858,67	64000,00
859,11	64000,00
859,55	64000,00
859,99	64000,00
860,43	64000,00
860,87	64000,00
861,30	64000,00
861,74	64000,00
862,18	64000,00
862,62	64000,00
863,06	64000,00
863,50	64000,00
863,94	64000,00
864,37	64000,00
864,81	64000,00
865,25	64000,00
865,69	64000,00
866,13	64000,00
866,57	64000,00
867,00	64000,00
867,44	64000,00
867,88	64000,00
868,32	64000,00
868,76	64000,00
869,19	64000,00
869,63	64000,00
870,07	64000,00
870,51	64000,00
870,95	64000,00
871,38	64000,00
871,82	64000,00
872,26	64000,00
872,70	64000,00
873,14	64000,00
873,57	64000,00
874,01	64000,00
874,45	64000,00
874,89	64000,00
875,32	64000,00
875,76	64000,00
876,20	64000,00
876,64	64000,00
877,07	64000,00
877,51	64000,00
877,95	64000,00
878,39	64000,00
878,82	64000,00
879,26	64000,00
879,70	64000,00
880,14	64000,00
880,57	64000,00
881,01	64000,00
881,45	64000,00
881,89	64000,00
882,32	64000,00
882,76	64000,00
883,20	64000,00
883,63	64000,00
884,07	64000,00
884,51	64000,00
884,94	64000,00
885,38	64000,00
885,82	64000,00
886,26	64000,00
886,69	64000,00
887,13	64000,00
887,57	64000,00
888,00	64000,00
888,44	64000,00
888,88	64000,00
889,31	64000,00
889,75	64000,00
890,19	64000,00
890,62	64000,00
891,06	64000,00
891,50	64000,00
891,93	64000,00
892,37	64000,00
892,81	64000,00
893,24	64000,00
893,68	64000,00
894,11	64000,00
894,55	64000,00
894,99	64000,00
895,42	64000,00
895,86	64000,00
896,30	64000,00
896,73	64000,00
897,17	64000,00
897,60	64000,00
898,04	64000,00
898,48	64000,00
898,91	64000,00
899,35	64000,00
899,78	64000,00
900,22	64000,00
900,66	64000,00
901,09	64000,00
901,53	64000,00
901,96	64000,00
902,40	64000,00
902,84	64000,00
903,27	64000,00
903,71	64000,00
904,14	64000,00
904,58	64000,00
905,01	64000,00
905,45	64000,00
905,88	64000,00
906,32	64000,00
906,76	64000,00
907,19	64000,00
907,63	64000,00
908,06	64000,00
908,50	64000,00
908,93	64000,00
909,37	64000,00
909,80	64000,00
910,24	64000,00
910,67	64000,00
911,11	64000,00
911,54	64000,00
911,98	64000,00
912,41	64000,00
912,85	64000,00
913,28	64000,00
913,72	64000,00
914,15	64000,00
914,59	64000,00
915,02	64000,00
915,46	64000,00
915,89	64000,00
916,33	64000,00
916,76	64000,00
917,20	64000,00
917,63	64000,00
918,07	64000,00
918,50	64000,00
918,94	64000,00
919,37	64000,00
919,81	64000,00
920,24	64000,00
920,67	64000,00
921,11	64000,00
921,54	64000,00
921,98	64000,00
922,41	64000,00
922,85	64000,00
923,28	64000,00
923,72	64000,00
924,15	64000,00
924,58	64000,00
925,02	64000,00
925,45	64000,00
925,89	64000,00
926,32	64000,00
926,75	64000,00
927,19	64000,00
927,62	64000,00
928,06	64000,00
928,49	64000,00
928,92	64000,00
929,36	64000,00
929,79	64000,00
930,23	64000,00
930,66	64000,00
931,09	64000,00
931,53	64000,00
931,96	64000,00
932,39	64000,00
932,83	64000,00
933,26	64000,00
933,70	64000,00
934,13	64000,00
934,56	64000,00
935,00	64000,00
935,43	64000,00
935,86	64000,00
936,30	64000,00
936,73	64000,00
937,16	64000,00
937,60	64000,00
938,03	64000,00
938,46	64000,00
938,90	64000,00
939,33	64000,00
939,76	64000,00
940,19	64000,00
940,63	64000,00
941,06	64000,00
941,49	64000,00
941,93	64000,00
942,36	64000,00
942,79	64000,00
943,23	64000,00
943,66	64000,00
944,09	64000,00
944,52	64000,00
944,96	64000,00
945,39	64000,00
945,82	64000,00
946,26	64000,00
946,69	64000,00
947,12	64000,00
947,55	64000,00
947,99	64000,00
948,42	64000,00
948,85	64000,00
949,28	64000,00
949,72	64000,00
950,15	64000,00
950,58	64000,00
951,01	64000,00
951,45	64000,00
951,88	64000,00
952,31	64000,00
952,74	64000,00
953,17	64000,00
953,61	64000,00
954,04	64000,00
954,47	64000,00
954,90	64000,00
955,33	64000,00
955,77	64000,00
956,20	64000,00
956,63	64000,00
957,06	64000,00
957,49	64000,00
957,93	64000,00
958,36	64000,00
958,79	64000,00
959,22	64000,00
959,65	64000,00
960,08	64000,00
960,52	64000,00
960,95	64000,00
961,38	64000,00
961,81	64000,00
962,24	64000,00
962,67	64000,00
963,11	64000,00
963,54	64000,00
963,97	64000,00
964,40	64000,00
964,83	64000,00
965,26	64000,00
965,69	64000,00
966,13	64000,00
966,56	64000,00
966,99	64000,00
967,42	64000,00
967,85	64000,00
968,28	64000,00
968,71	64000,00
969,14	64000,00
969,57	64000,00
970,01	64000,00
970,44	64000,00
970,87	64000,00
971,30	64000,00
971,73	64000,00
972,16	64000,00
972,59	64000,00
973,02	64000,00
973,45	64000,00
973,88	64000,00
974,31	64000,00
974,74	64000,00
975,17	64000,00
975,61	64000,00
976,04	64000,00
976,47	64000,00
976,90	64000,00
977,33	64000,00
977,76	64000,00
978,19	64000,00
978,62	64000,00
979,05	64000,00
979,48	64000,00
979,91	64000,00
980,34	64000,00
980,77	64000,00
981,20	64000,00
981,63	64000,00
982,06	64000,00
982,49	64000,00
982,92	64000,00
983,35	64000,00
983,78	64000,00
984,21	64000,00
984,64	64000,00
985,07	64000,00
985,50	64000,00
985,93	64000,00
986,36	64000,00
986,79	64000,00
987,22	64000,00
987,65	64000,00
988,08	64000,00
988,51	64000,00
988,94	64000,00
989,37	64000,00
989,80	64000,00
990,23	64000,00
990,66	64000,00
991,09	64000,00
991,51	64000,00
991,94	64000,00
992,37	64000,00
992,80	64000,00
993,23	64000,00
993,66	64000,00
994,09	64000,00
994,52	64000,00
994,95	64000,00
995,38	64000,00
995,81	64000,00
996,24	64000,00
996,67	64000,00
997,09	64000,00
997,52	64000,00
997,95	64000,00
998,38	64000,00
998,81	64000,00
999,24	64000,00
999,67	64000,00
1000,10	64000,00
1000,53	64000,00
1000,95	64000,00
1001,38	64000,00
1001,81	64000,00
1002,24	64000,00
1002,67	64000,00
1003,10	64000,00
1003,53	64000,00
1003,95	64000,00
1004,38	64000,00
1004,81	64000,00
1005,24	64000,00
1005,67	64000,00
1006,10	64000,00
1006,52	64000,00
1006,95	64000,00
1007,38	64000,00
1007,81	64000,00
1008,24	64000,00
1008,67	64000,00
1009,09	64000,00
1009,52	64000,00
1009,95	64000,00
1010,38	64000,00
1010,81	64000,00
1011,23	64000,00
1011,66	64000,00
1012,09	64000,00
1012,52	64000,00
1012,95	64000,00
1013,37	64000,00
1013,80	64000,00
1014,23	64000,00
1014,66	64000,00
1015,08	64000,00
1015,51	64000,00
1015,94	64000,00
1016,37	64000,00
1016,80	64000,00
1017,22	64000,00
1017,65	64000,00
1018,08	64000,00
1018,51	64000,00
1018,93	64000,00
1019,36	64000,00
1019,79	64000,00
1020,21	64000,00
1020,64	64000,00
1021,07	64000,00
1021,50	64000,00
1021,92	64000,00
1022,35	64000,00
1022,78	64000,00
1023,21	64000,00
1023,63	64000,00
1024,06	64000,00
1024,49	64000,00
1024,91	64000,00
1025,34	64000,00
1025,77	64000,00
1026,19	64000,00
1026,62	64000,00
1027,05	64000,00
1027,47	64000,00
1027,90	64000,00
1028,33	64000,00
1028,75	64000,00
1029,18	64000,00
1029,61	64000,00
1030,03	64000,00
1030,46	64000,00
1030,89	64000,00
1031,31	64000,00
1031,74	64000,00
1032,17	64000,00
1032,59	64000,00
1033,02	64000,00
1033,45	64000,00
1033,87	64000,00
1034,30	64000,00
1034,73	64000,00
1035,15	64000,00
1035,58	64000,00
1036,00	64000,00
1036,43	64000,00
1036,86	64000,00
1037,28	64000,00
1037,71	64000,00
1038,13	64000,00
1038,56	64000,00
1038,99	64000,00
1039,41	64000,00
1039,84	64000,00
1040,26	64000,00
1040,69	64000,00
1041,11	64000,00
1041,54	64000,00
1041,97	64000,00
1042,39	64000,00
1042,82	64000,00
1043,24	64000,00
1043,67	64000,00
1044,09	64000,00
1044,52	64000,00
1044,95	64000,00
1045,37	64000,00
1045,80	64000,00
1046,22	64000,00
1046,65	64000,00
1047,07	64000,00
1047,50	64000,00
1047,92	64000,00
1048,35	64000,00
1048,77	64000,00
1049,20	64000,00
1049,62	64000,00
1050,05	64000,00
1050,47	64000,00
1050,90	64000,00
1051,32	64000,00
1051,75	64000,00
1052,17	64000,00
1052,60	64000,00
1053,02	64000,00
1053,45	64000,00
1053,87	64000,00
1054,30	64000,00
1054,72	64000,00
1055,15	64000,00
1055,57	64000,00
1056,00	64000,00
1056,42	64000,00
1056,85	64000,00
1057,27	64000,00
1057,70	64000,00
1058,12	64000,00
1058,54	64000,00
1058,97	64000,00
1059,39	64000,00
1059,82	64000,00
1060,24	64000,00
1060,67	64000,00
1061,09	64000,00
1061,51	64000,00
1061,94	64000,00
1062,36	64000,00
1062,79	64000,00
1063,21	64000,00
1063,64	64000,00
1064,06	64000,00
1064,48	64000,00
1064,91	64000,00
1065,33	64000,00
1065,76	64000,00
1066,18	64000,00
1066,60	64000,00
1067,03	64000,00
1067,45	64000,00
1067,87	64000,00
1068,30	64000,00
1068,72	64000,00
1069,15	64000,00
1069,57	64000,00
1069,99	64000,00
1070,42	64000,00
1070,84	64000,00
1071,26	64000,00
1071,69	63356,70
1072,11	63216,70
1072,53	62363,60
1072,96	61604,50
1073,38	61048,80
1073,80	61538,60
1074,23	60786,30
1074,65	60153,90
1075,07	60237,80
1075,50	60052,50
1075,92	60142,50
1076,34	59576,10
1076,77	59317,00
1077,19	59337,60
1077,61	59358,80
1078,04	58436,70
1078,46	58250,20
1078,88	57964,90
1079,30	56029,50
1079,73	55876,70
1080,15	54740,80
1080,57	54059,40
1081,00	53435,50
1081,42	52505,70
1081,84	51912,90
1082,26	51574,30
1082,69	50853,30
1083,11	50339,40
1083,53	49887,40
1083,95	49508,60
1084,38	49517,20
1084,80	48727,90
1085,22	48443,70
1085,64	48752,90
1086,07	47676,40
1086,49	47664,70
1086,91	47720,90
1087,33	46995,40
1087,76	47589,00
1088,18	57086,00
1088,60	47335,10
1089,02	46353,70
1089,45	46121,40
1089,87	45714,40
1090,29	45781,90
1090,71	44756,70
1091,13	43723,60
1091,56	43209,00
1091,98	42597,00
1092,40	41762,10
1092,82	41432,80
1093,24	40720,60
1093,66	40277,90
1094,09	39664,00
1094,51	39294,80
1094,93	38790,20
1095,35	38558,30
1095,77	37989,70
1096,19	37961,90
1096,62	37831,90
1097,04	37033,80
1097,46	37128,10
1097,88	36786,90
1098,30	37020,10
1098,72	36842,60
1099,15	36464,10
1099,57	36040,90
1099,99	35725,10
1100,41	35084,20
1100,83	34723,90
1101,25	33990,60
1101,67	33545,50
1102,09	32438,80
1102,52	32026,30
1102,94	31660,50
1103,36	31275,40
1103,78	31082,50
1104,20	30481,80
1104,62	31258,10
1105,04	29498,50
1105,46	30279,30
1105,88	30085,90
1106,30	29766,10
1106,73	29799,80
1107,15	28811,20
1107,57	28651,70
1107,99	29111,20
1108,41	27656,30
1108,83	27729,20
1109,25	27053,00
1109,67	26557,60
1110,09	25438,50
1110,51	25514,40
1110,93	24937,10
1111,35	25050,10
1111,77	24643,70
1112,19	24659,40
1112,61	24334,70
1113,03	24374,00
1113,45	23451,20
1113,87	22530,30
1114,29	22256,90
1114,71	21757,50
1115,13	20899,60
1115,55	20956,40
1115,98	20461,40
1116,40	19259,40
1116,82	18009,40
1117,24	16703,90
1117,66	16134,70
1118,08	1895,00
1118,50	2223,40
1118,91	2192,10
1119,33	2193,50
>>>>>End Processed Spectral Data<<<<<
