SpectraSuite Data File
++++++++++++++++++++++++++++++++++++
Date: Thu Feb 25 13:22:34 EET 2016
User: OO Maya
Dark Spectrum Present: No
Reference Spectrum Present: No
Number of Sampled Component Spectra: 1
Spectrometers: MAYP11278
Integration Time (usec): 4000000 (MAYP11278)
Spectra Averaged: 10 (MAYP11278)
Boxcar Smoothing: 0 (MAYP11278)
Correct for Electrical Dark: No (MAYP11278)
Strobe/Lamp Enabled: No (MAYP11278)
Correct for Detector Non-linearity: No (MAYP11278)
Correct for Stray Light: No (MAYP11278)
Number of Pixels in Processed Spectrum: 2068
>>>>>Begin Processed Spectral Data<<<<<
187,82	2304,20
188,30	2223,10
188,78	2194,40
189,26	2195,30
189,73	7983,70
190,21	8654,60
190,69	9013,80
191,17	9292,90
191,64	9660,90
192,12	9296,50
192,60	9191,20
193,07	8942,00
193,55	9331,90
194,03	9277,70
194,51	9449,50
194,98	9217,40
195,46	9710,40
195,94	9168,30
196,42	9272,30
196,89	10306,50
197,37	9255,30
197,85	9026,10
198,32	9201,00
198,80	9050,90
199,28	9479,00
199,76	9632,20
200,23	9247,50
200,71	9269,00
201,19	9669,00
201,66	9563,30
202,14	9553,90
202,62	8999,70
203,09	9475,40
203,57	9048,20
204,05	9693,30
204,53	9850,60
205,00	9162,20
205,48	9157,90
205,96	9942,80
206,43	9277,90
206,91	9467,70
207,39	10399,40
207,86	9454,90
208,34	9571,80
208,82	9312,60
209,29	9716,80
209,77	9593,60
210,25	9396,40
210,72	9340,40
211,20	9577,60
211,68	9486,20
212,15	9181,30
212,63	10092,20
213,11	9601,30
213,58	9254,60
214,06	10094,10
214,53	9511,90
215,01	9938,30
215,49	9575,40
215,96	9640,40
216,44	9702,20
216,92	9606,10
217,39	9229,70
217,87	9408,20
218,35	9862,90
218,82	8943,40
219,30	9151,10
219,77	9203,40
220,25	9394,00
220,73	10315,20
221,20	9204,60
221,68	9760,30
222,15	9219,10
222,63	9750,00
223,11	9299,50
223,58	9789,40
224,06	9410,30
224,53	9325,50
225,01	9103,80
225,49	9391,40
225,96	9213,90
226,44	9446,70
226,91	9831,80
227,39	9420,50
227,87	9927,00
228,34	9717,60
228,82	9704,10
229,29	9423,10
229,77	9487,40
230,24	9347,90
230,72	9737,70
231,20	9750,40
231,67	9508,10
232,15	9534,60
232,62	9140,60
233,10	9525,40
233,57	9629,90
234,05	10868,80
234,53	9640,00
235,00	9322,10
235,48	9291,10
235,95	9138,40
236,43	9820,70
236,90	10351,80
237,38	9343,40
237,85	9579,70
238,33	9572,60
238,80	9590,60
239,28	9446,00
239,75	9087,60
240,23	9731,10
240,71	9996,30
241,18	9594,70
241,66	9478,20
242,13	9908,00
242,61	9944,80
243,08	9109,50
243,56	9213,20
244,03	9815,50
244,51	10025,10
244,98	9435,50
245,46	10016,90
245,93	27026,60
246,41	8936,80
246,88	9650,70
247,36	9587,10
247,83	9641,50
248,31	9686,60
248,78	9046,90
249,26	9589,10
249,73	9855,80
250,21	9660,10
250,68	10109,90
251,16	9612,30
251,63	10322,60
252,10	10077,30
252,58	9400,00
253,05	10058,80
253,53	9650,40
254,00	9495,30
254,48	9708,10
254,95	9732,80
255,43	9944,50
255,90	9339,10
256,38	9716,40
256,85	9800,70
257,33	9950,90
257,80	10788,10
258,27	9634,70
258,75	9415,10
259,22	9739,80
259,70	9884,30
260,17	10276,60
260,65	9632,40
261,12	9514,10
261,59	10076,70
262,07	9425,00
262,54	9814,70
263,02	9655,70
263,49	9244,80
263,97	9946,90
264,44	10084,70
264,91	9495,90
265,39	9691,40
265,86	9836,10
266,34	9896,10
266,81	9549,90
267,28	9661,60
267,76	9823,30
268,23	9893,40
268,71	9216,80
269,18	9468,60
269,65	9574,80
270,13	9952,30
270,60	10179,80
271,08	9613,60
271,55	9757,00
272,02	9254,90
272,50	9321,60
272,97	9087,50
273,44	9755,90
273,92	11104,30
274,39	10032,40
274,87	10160,20
275,34	9632,60
275,81	9756,10
276,29	10017,90
276,76	10130,60
277,23	9386,20
277,71	9709,10
278,18	9408,70
278,65	11346,90
279,13	9632,10
279,60	9588,90
280,07	11308,40
280,55	10191,10
281,02	11103,70
281,50	9657,40
281,97	10337,90
282,44	9799,20
282,91	9830,50
283,39	10030,50
283,86	9542,50
284,33	9466,10
284,81	10110,20
285,28	9771,50
285,75	9929,90
286,23	9988,10
286,70	9397,50
287,17	10039,40
287,65	10607,10
288,12	9869,70
288,59	10250,90
289,07	9346,50
289,54	10576,00
290,01	9725,50
290,48	10116,30
290,96	9765,50
291,43	10152,10
291,90	10811,00
292,38	9774,30
292,85	10373,10
293,32	9801,00
293,79	10245,70
294,27	10234,00
294,74	9962,60
295,21	10145,30
295,69	10249,50
296,16	10934,60
296,63	10822,00
297,10	10494,60
297,58	10352,50
298,05	10323,50
298,52	10015,00
298,99	10858,00
299,47	10094,20
299,94	10365,70
300,41	10005,50
300,88	10588,00
301,36	10588,10
301,83	10561,30
302,30	9973,40
302,77	10610,00
303,25	10652,80
303,72	10188,40
304,19	10277,80
304,66	10173,60
305,13	10540,90
305,61	10564,50
306,08	10574,00
306,55	10628,30
307,02	10290,60
307,49	10293,80
307,97	10545,80
308,44	10323,40
308,91	10807,90
309,38	10905,00
309,86	10707,30
310,33	10658,20
310,80	10845,30
311,27	10464,60
311,74	11123,70
312,21	10664,40
312,69	11451,90
313,16	10459,70
313,63	10584,10
314,10	10763,20
314,57	10524,30
315,05	10519,80
315,52	11113,10
315,99	11084,50
316,46	10874,00
316,93	11037,70
317,40	11018,00
317,88	12055,30
318,35	10936,60
318,82	10913,80
319,29	10548,50
319,76	11250,90
320,23	11883,00
320,70	11438,40
321,18	11064,10
321,65	10583,10
322,12	10776,30
322,59	11834,10
323,06	10982,10
323,53	12103,90
324,00	10656,60
324,48	11216,90
324,95	11118,70
325,42	11171,80
325,89	11302,80
326,36	11360,40
326,83	11807,30
327,30	11818,40
327,77	11878,70
328,24	11756,80
328,72	11579,90
329,19	11491,00
329,66	11475,80
330,13	11327,30
330,60	11911,90
331,07	11634,60
331,54	12104,80
332,01	11285,00
332,48	12516,80
332,95	12197,10
333,43	12292,30
333,90	12671,10
334,37	12250,80
334,84	12552,50
335,31	13959,10
335,78	12168,90
336,25	12512,20
336,72	12378,50
337,19	12473,70
337,66	12295,40
338,13	12278,70
338,60	13027,50
339,07	12687,80
339,54	12041,50
340,01	12096,00
340,49	12028,50
340,96	12585,10
341,43	12912,80
341,90	12361,90
342,37	12652,60
342,84	12854,10
343,31	12694,10
343,78	12463,80
344,25	12548,70
344,72	12409,10
345,19	12639,70
345,66	12809,50
346,13	12462,60
346,60	12340,30
347,07	13233,90
347,54	12438,20
348,01	13082,70
348,48	12745,90
348,95	12257,60
349,42	12801,50
349,89	13117,50
350,36	12846,40
350,83	12594,20
351,30	12995,30
351,77	13632,40
352,24	13059,70
352,71	12896,80
353,18	13052,10
353,65	13245,90
354,12	13202,10
354,59	13382,80
355,06	13260,10
355,53	13857,20
356,00	12975,50
356,47	13899,60
356,94	12977,80
357,41	14617,80
357,88	13707,80
358,35	13093,10
358,82	13249,60
359,28	13444,70
359,75	13461,60
360,22	14087,80
360,69	14367,40
361,16	13713,70
361,63	13836,00
362,10	13878,30
362,57	13839,20
363,04	14026,60
363,51	15009,30
363,98	14360,00
364,45	13936,30
364,92	14404,40
365,39	14153,60
365,86	13989,90
366,32	14552,70
366,79	14556,30
367,26	22868,80
367,73	13976,40
368,20	14461,50
368,67	15166,60
369,14	14543,10
369,61	15348,30
370,08	15143,70
370,55	14992,60
371,02	19069,50
371,48	15423,70
371,95	15101,10
372,42	14937,70
372,89	15272,60
373,36	15601,50
373,83	15277,70
374,30	15524,90
374,77	15996,70
375,23	15522,40
375,70	16730,20
376,17	16112,60
376,64	15947,50
377,11	16053,60
377,58	16720,60
378,05	16657,20
378,51	16746,40
378,98	16898,80
379,45	16945,60
379,92	17321,80
380,39	17762,80
380,86	17361,50
381,33	18094,50
381,79	18109,80
382,26	17252,10
382,73	17985,00
383,20	17870,70
383,67	18540,40
384,14	18276,60
384,60	20548,40
385,07	18576,80
385,54	18563,40
386,01	18756,30
386,48	19729,40
386,94	18838,80
387,41	18876,20
387,88	19721,40
388,35	19690,30
388,82	20145,80
389,28	19610,50
389,75	20170,60
390,22	20167,80
390,69	20475,50
391,16	20546,50
391,62	20678,70
392,09	20910,70
392,56	20887,20
393,03	21022,50
393,50	22312,00
393,96	21522,50
394,43	22109,10
394,90	21577,00
395,37	22390,20
395,83	24097,40
396,30	21960,20
396,77	22798,10
397,24	23072,50
397,70	22572,00
398,17	23076,80
398,64	23035,90
399,11	23097,30
399,57	24026,20
400,04	23451,50
400,51	23959,20
400,98	23984,60
401,44	24491,90
401,91	24668,80
402,38	24767,30
402,84	24699,30
403,31	25749,00
403,78	25240,60
404,25	26139,80
404,71	26488,00
405,18	26437,00
405,65	25927,50
406,12	26644,40
406,58	26801,50
407,05	27541,90
407,52	26939,80
407,98	27261,60
408,45	27625,40
408,92	27346,10
409,38	28212,90
409,85	27714,00
410,32	28682,40
410,78	28125,60
411,25	29066,50
411,72	28644,90
412,18	28512,00
412,65	29480,40
413,12	29347,60
413,59	29861,40
414,05	30230,60
414,52	30797,80
414,98	30327,70
415,45	31208,10
415,92	30917,90
416,38	31128,50
416,85	32022,00
417,32	31611,10
417,78	31556,60
418,25	31928,60
418,72	32212,50
419,18	32691,40
419,65	32386,90
420,12	33164,90
420,58	32711,80
421,05	33286,80
421,51	33502,30
421,98	34080,00
422,45	33931,00
422,91	34289,10
423,38	34715,90
423,85	35087,40
424,31	35079,10
424,78	35609,20
425,24	35635,30
425,71	36422,10
426,18	35974,10
426,64	36808,70
427,11	36918,50
427,57	37260,30
428,04	36745,80
428,51	37725,30
428,97	37781,80
429,44	37880,10
429,90	38374,30
430,37	39706,70
430,83	38439,90
431,30	38975,00
431,77	39874,10
432,23	39822,10
432,70	39811,30
433,16	39957,20
433,63	40405,00
434,09	40686,20
434,56	41279,30
435,03	40986,80
435,49	41929,30
435,96	41982,70
436,42	41773,20
436,89	42722,10
437,35	42875,20
437,82	43136,90
438,28	43195,10
438,75	43463,90
439,21	45381,50
439,68	44328,10
440,14	44802,20
440,61	45192,20
441,07	44751,20
441,54	45176,70
442,00	46536,20
442,47	45572,70
442,94	46325,00
443,40	46666,90
443,87	46426,70
444,33	47645,20
444,80	47665,10
445,26	47690,20
445,73	48030,50
446,19	48443,30
446,65	48628,90
447,12	48943,80
447,58	49107,70
448,05	49355,50
448,51	50069,90
448,98	50377,20
449,44	50519,30
449,91	50609,30
450,37	50904,20
450,84	51303,90
451,30	52064,50
451,77	52491,30
452,23	52335,50
452,70	53293,00
453,16	53254,90
453,62	53624,70
454,09	54020,40
454,55	54527,50
455,02	54648,20
455,48	55111,90
455,95	55778,60
456,41	55651,50
456,88	56564,20
457,34	56455,80
457,80	56804,40
458,27	56864,30
458,73	57591,90
459,20	57794,50
459,66	59077,30
460,13	58384,80
460,59	58521,70
461,05	59807,90
461,52	59947,70
461,98	59749,00
462,45	59941,90
462,91	61128,40
463,37	60975,90
463,84	61450,70
464,30	61765,80
464,76	61814,60
465,23	62270,00
465,69	63062,70
466,16	63164,60
466,62	63676,70
467,08	63952,10
467,55	63985,50
468,01	64000,00
468,48	64000,00
468,94	64000,00
469,40	64000,00
469,87	64000,00
470,33	64000,00
470,79	64000,00
471,26	64000,00
471,72	64000,00
472,18	64000,00
472,65	64000,00
473,11	64000,00
473,57	64000,00
474,04	64000,00
474,50	64000,00
474,96	64000,00
475,43	64000,00
475,89	64000,00
476,35	64000,00
476,82	64000,00
477,28	64000,00
477,74	64000,00
478,21	64000,00
478,67	64000,00
479,13	64000,00
479,59	64000,00
480,06	64000,00
480,52	64000,00
480,98	64000,00
481,45	64000,00
481,91	64000,00
482,37	64000,00
482,84	64000,00
483,30	64000,00
483,76	64000,00
484,22	64000,00
484,69	64000,00
485,15	64000,00
485,61	64000,00
486,07	64000,00
486,54	64000,00
487,00	64000,00
487,46	64000,00
487,92	64000,00
488,39	64000,00
488,85	64000,00
489,31	64000,00
489,77	64000,00
490,24	64000,00
490,70	64000,00
491,16	64000,00
491,62	64000,00
492,09	64000,00
492,55	64000,00
493,01	64000,00
493,47	64000,00
493,94	64000,00
494,40	64000,00
494,86	64000,00
495,32	64000,00
495,78	64000,00
496,25	64000,00
496,71	64000,00
497,17	64000,00
497,63	64000,00
498,09	64000,00
498,56	64000,00
499,02	64000,00
499,48	64000,00
499,94	64000,00
500,40	64000,00
500,87	64000,00
501,33	64000,00
501,79	64000,00
502,25	64000,00
502,71	64000,00
503,17	64000,00
503,64	64000,00
504,10	64000,00
504,56	64000,00
505,02	64000,00
505,48	64000,00
505,94	64000,00
506,40	64000,00
506,87	64000,00
507,33	64000,00
507,79	64000,00
508,25	64000,00
508,71	64000,00
509,17	64000,00
509,63	64000,00
510,10	64000,00
510,56	64000,00
511,02	64000,00
511,48	64000,00
511,94	64000,00
512,40	64000,00
512,86	64000,00
513,32	64000,00
513,78	64000,00
514,25	64000,00
514,71	64000,00
515,17	64000,00
515,63	64000,00
516,09	64000,00
516,55	64000,00
517,01	64000,00
517,47	64000,00
517,93	64000,00
518,39	64000,00
518,85	64000,00
519,32	64000,00
519,78	64000,00
520,24	64000,00
520,70	64000,00
521,16	64000,00
521,62	64000,00
522,08	64000,00
522,54	64000,00
523,00	64000,00
523,46	64000,00
523,92	64000,00
524,38	64000,00
524,84	64000,00
525,30	64000,00
525,76	64000,00
526,22	64000,00
526,68	64000,00
527,14	64000,00
527,60	64000,00
528,06	64000,00
528,52	64000,00
528,98	64000,00
529,44	64000,00
529,90	64000,00
530,36	64000,00
530,82	64000,00
531,28	64000,00
531,74	64000,00
532,20	64000,00
532,66	64000,00
533,12	64000,00
533,58	64000,00
534,04	64000,00
534,50	64000,00
534,96	64000,00
535,42	64000,00
535,88	64000,00
536,34	64000,00
536,80	64000,00
537,26	64000,00
537,72	64000,00
538,18	64000,00
538,64	64000,00
539,10	64000,00
539,56	64000,00
540,02	64000,00
540,48	64000,00
540,94	64000,00
541,40	64000,00
541,86	64000,00
542,32	64000,00
542,78	64000,00
543,24	64000,00
543,69	64000,00
544,15	64000,00
544,61	64000,00
545,07	64000,00
545,53	64000,00
545,99	64000,00
546,45	64000,00
546,91	64000,00
547,37	64000,00
547,83	64000,00
548,29	64000,00
548,74	64000,00
549,20	64000,00
549,66	64000,00
550,12	64000,00
550,58	64000,00
551,04	64000,00
551,50	64000,00
551,96	64000,00
552,42	64000,00
552,87	64000,00
553,33	64000,00
553,79	64000,00
554,25	64000,00
554,71	64000,00
555,17	64000,00
555,63	64000,00
556,08	64000,00
556,54	64000,00
557,00	64000,00
557,46	64000,00
557,92	64000,00
558,38	64000,00
558,83	64000,00
559,29	64000,00
559,75	64000,00
560,21	64000,00
560,67	64000,00
561,13	64000,00
561,58	64000,00
562,04	64000,00
562,50	64000,00
562,96	64000,00
563,42	64000,00
563,87	64000,00
564,33	64000,00
564,79	64000,00
565,25	64000,00
565,71	64000,00
566,16	64000,00
566,62	64000,00
567,08	64000,00
567,54	64000,00
568,00	64000,00
568,45	64000,00
568,91	64000,00
569,37	64000,00
569,83	64000,00
570,28	64000,00
570,74	64000,00
571,20	64000,00
571,66	64000,00
572,11	64000,00
572,57	64000,00
573,03	64000,00
573,49	64000,00
573,94	64000,00
574,40	64000,00
574,86	64000,00
575,32	64000,00
575,77	64000,00
576,23	64000,00
576,69	64000,00
577,15	64000,00
577,60	64000,00
578,06	64000,00
578,52	64000,00
578,97	64000,00
579,43	64000,00
579,89	64000,00
580,34	64000,00
580,80	64000,00
581,26	64000,00
581,72	64000,00
582,17	64000,00
582,63	64000,00
583,09	64000,00
583,54	64000,00
584,00	64000,00
584,46	64000,00
584,91	64000,00
585,37	64000,00
585,83	64000,00
586,28	64000,00
586,74	64000,00
587,20	64000,00
587,65	64000,00
588,11	64000,00
588,57	64000,00
589,02	64000,00
589,48	64000,00
589,94	64000,00
590,39	64000,00
590,85	64000,00
591,30	64000,00
591,76	64000,00
592,22	64000,00
592,67	64000,00
593,13	64000,00
593,59	64000,00
594,04	64000,00
594,50	64000,00
594,95	64000,00
595,41	64000,00
595,87	64000,00
596,32	64000,00
596,78	64000,00
597,23	64000,00
597,69	64000,00
598,15	64000,00
598,60	64000,00
599,06	64000,00
599,51	64000,00
599,97	64000,00
600,43	64000,00
600,88	64000,00
601,34	64000,00
601,79	64000,00
602,25	64000,00
602,70	64000,00
603,16	64000,00
603,61	64000,00
604,07	64000,00
604,53	64000,00
604,98	64000,00
605,44	64000,00
605,89	64000,00
606,35	64000,00
606,80	64000,00
607,26	64000,00
607,71	64000,00
608,17	64000,00
608,62	64000,00
609,08	64000,00
609,53	64000,00
609,99	64000,00
610,44	64000,00
610,90	64000,00
611,35	64000,00
611,81	64000,00
612,26	64000,00
612,72	64000,00
613,17	64000,00
613,63	64000,00
614,08	64000,00
614,54	64000,00
614,99	64000,00
615,45	64000,00
615,90	64000,00
616,36	64000,00
616,81	64000,00
617,27	64000,00
617,72	64000,00
618,18	64000,00
618,63	64000,00
619,09	64000,00
619,54	64000,00
619,99	64000,00
620,45	64000,00
620,90	64000,00
621,36	64000,00
621,81	64000,00
622,27	64000,00
622,72	64000,00
623,18	64000,00
623,63	64000,00
624,08	64000,00
624,54	64000,00
624,99	64000,00
625,45	64000,00
625,90	64000,00
626,35	64000,00
626,81	64000,00
627,26	64000,00
627,72	64000,00
628,17	64000,00
628,62	64000,00
629,08	64000,00
629,53	64000,00
629,99	64000,00
630,44	64000,00
630,89	64000,00
631,35	64000,00
631,80	64000,00
632,26	64000,00
632,71	64000,00
633,16	64000,00
633,62	64000,00
634,07	64000,00
634,52	64000,00
634,98	64000,00
635,43	64000,00
635,88	64000,00
636,34	64000,00
636,79	64000,00
637,24	64000,00
637,70	64000,00
638,15	64000,00
638,60	64000,00
639,06	64000,00
639,51	64000,00
639,96	64000,00
640,42	64000,00
640,87	64000,00
641,32	64000,00
641,78	64000,00
642,23	64000,00
642,68	64000,00
643,14	64000,00
643,59	64000,00
644,04	64000,00
644,49	64000,00
644,95	64000,00
645,40	64000,00
645,85	64000,00
646,31	64000,00
646,76	64000,00
647,21	64000,00
647,66	64000,00
648,12	64000,00
648,57	64000,00
649,02	64000,00
649,47	64000,00
649,93	64000,00
650,38	64000,00
650,83	64000,00
651,28	64000,00
651,74	64000,00
652,19	64000,00
652,64	64000,00
653,09	64000,00
653,55	64000,00
654,00	64000,00
654,45	64000,00
654,90	64000,00
655,35	64000,00
655,81	64000,00
656,26	64000,00
656,71	64000,00
657,16	64000,00
657,62	64000,00
658,07	64000,00
658,52	64000,00
658,97	64000,00
659,42	64000,00
659,88	64000,00
660,33	64000,00
660,78	64000,00
661,23	64000,00
661,68	64000,00
662,13	64000,00
662,59	64000,00
663,04	64000,00
663,49	64000,00
663,94	64000,00
664,39	64000,00
664,84	64000,00
665,30	64000,00
665,75	64000,00
666,20	64000,00
666,65	64000,00
667,10	64000,00
667,55	64000,00
668,00	64000,00
668,46	64000,00
668,91	64000,00
669,36	64000,00
669,81	64000,00
670,26	64000,00
670,71	64000,00
671,16	64000,00
671,61	64000,00
672,06	64000,00
672,52	64000,00
672,97	64000,00
673,42	64000,00
673,87	64000,00
674,32	64000,00
674,77	64000,00
675,22	64000,00
675,67	64000,00
676,12	64000,00
676,57	64000,00
677,02	64000,00
677,47	64000,00
677,93	64000,00
678,38	64000,00
678,83	64000,00
679,28	64000,00
679,73	64000,00
680,18	64000,00
680,63	64000,00
681,08	64000,00
681,53	64000,00
681,98	64000,00
682,43	64000,00
682,88	64000,00
683,33	64000,00
683,78	64000,00
684,23	64000,00
684,68	64000,00
685,13	64000,00
685,58	64000,00
686,03	64000,00
686,48	64000,00
686,93	64000,00
687,38	64000,00
687,83	64000,00
688,28	64000,00
688,73	64000,00
689,18	64000,00
689,63	64000,00
690,08	64000,00
690,53	64000,00
690,98	64000,00
691,43	64000,00
691,88	64000,00
692,33	64000,00
692,78	64000,00
693,23	64000,00
693,68	64000,00
694,13	64000,00
694,58	64000,00
695,03	64000,00
695,48	64000,00
695,93	64000,00
696,38	64000,00
696,83	64000,00
697,28	64000,00
697,72	64000,00
698,17	64000,00
698,62	64000,00
699,07	64000,00
699,52	64000,00
699,97	64000,00
700,42	64000,00
700,87	64000,00
701,32	64000,00
701,77	64000,00
702,22	64000,00
702,67	64000,00
703,11	64000,00
703,56	64000,00
704,01	64000,00
704,46	64000,00
704,91	64000,00
705,36	64000,00
705,81	64000,00
706,26	64000,00
706,70	64000,00
707,15	64000,00
707,60	64000,00
708,05	64000,00
708,50	64000,00
708,95	64000,00
709,40	64000,00
709,84	64000,00
710,29	64000,00
710,74	64000,00
711,19	64000,00
711,64	64000,00
712,09	64000,00
712,53	64000,00
712,98	64000,00
713,43	64000,00
713,88	64000,00
714,33	64000,00
714,78	64000,00
715,22	64000,00
715,67	64000,00
716,12	64000,00
716,57	64000,00
717,02	64000,00
717,46	64000,00
717,91	64000,00
718,36	64000,00
718,81	64000,00
719,26	64000,00
719,70	64000,00
720,15	64000,00
720,60	64000,00
721,05	64000,00
721,49	64000,00
721,94	64000,00
722,39	64000,00
722,84	64000,00
723,28	64000,00
723,73	64000,00
724,18	64000,00
724,63	64000,00
725,07	64000,00
725,52	64000,00
725,97	64000,00
726,42	64000,00
726,86	64000,00
727,31	64000,00
727,76	64000,00
728,21	64000,00
728,65	64000,00
729,10	64000,00
729,55	64000,00
729,99	64000,00
730,44	64000,00
730,89	64000,00
731,33	64000,00
731,78	64000,00
732,23	64000,00
732,68	64000,00
733,12	64000,00
733,57	64000,00
734,02	64000,00
734,46	64000,00
734,91	64000,00
735,36	64000,00
735,80	64000,00
736,25	64000,00
736,70	64000,00
737,14	64000,00
737,59	64000,00
738,04	64000,00
738,48	64000,00
738,93	64000,00
739,37	64000,00
739,82	64000,00
740,27	64000,00
740,71	64000,00
741,16	64000,00
741,61	64000,00
742,05	64000,00
742,50	64000,00
742,94	64000,00
743,39	64000,00
743,84	64000,00
744,28	64000,00
744,73	64000,00
745,18	64000,00
745,62	64000,00
746,07	64000,00
746,51	64000,00
746,96	64000,00
747,40	64000,00
747,85	64000,00
748,30	64000,00
748,74	64000,00
749,19	64000,00
749,63	64000,00
750,08	64000,00
750,52	64000,00
750,97	64000,00
751,42	64000,00
751,86	64000,00
752,31	64000,00
752,75	64000,00
753,20	64000,00
753,64	64000,00
754,09	64000,00
754,53	64000,00
754,98	64000,00
755,42	64000,00
755,87	64000,00
756,31	64000,00
756,76	64000,00
757,20	64000,00
757,65	64000,00
758,09	64000,00
758,54	64000,00
758,98	64000,00
759,43	64000,00
759,87	64000,00
760,32	64000,00
760,76	64000,00
761,21	64000,00
761,65	64000,00
762,10	64000,00
762,54	64000,00
762,99	64000,00
763,43	64000,00
763,88	64000,00
764,32	64000,00
764,77	64000,00
765,21	64000,00
765,66	64000,00
766,10	64000,00
766,54	64000,00
766,99	64000,00
767,43	64000,00
767,88	64000,00
768,32	64000,00
768,77	64000,00
769,21	64000,00
769,66	64000,00
770,10	64000,00
770,54	64000,00
770,99	64000,00
771,43	64000,00
771,88	64000,00
772,32	64000,00
772,76	64000,00
773,21	64000,00
773,65	64000,00
774,10	64000,00
774,54	64000,00
774,98	64000,00
775,43	64000,00
775,87	64000,00
776,31	64000,00
776,76	64000,00
777,20	64000,00
777,65	64000,00
778,09	64000,00
778,53	64000,00
778,98	64000,00
779,42	64000,00
779,86	64000,00
780,31	64000,00
780,75	64000,00
781,19	64000,00
781,64	64000,00
782,08	64000,00
782,52	64000,00
782,97	64000,00
783,41	64000,00
783,85	64000,00
784,30	64000,00
784,74	64000,00
785,18	64000,00
785,63	64000,00
786,07	64000,00
786,51	64000,00
786,95	64000,00
787,40	64000,00
787,84	64000,00
788,28	64000,00
788,73	64000,00
789,17	64000,00
789,61	64000,00
790,05	64000,00
790,50	64000,00
790,94	64000,00
791,38	64000,00
791,82	64000,00
792,27	64000,00
792,71	64000,00
793,15	64000,00
793,59	64000,00
794,04	64000,00
794,48	64000,00
794,92	64000,00
795,36	64000,00
795,81	64000,00
796,25	64000,00
796,69	64000,00
797,13	64000,00
797,57	64000,00
798,02	64000,00
798,46	64000,00
798,90	64000,00
799,34	64000,00
799,79	64000,00
800,23	64000,00
800,67	64000,00
801,11	64000,00
801,55	64000,00
801,99	64000,00
802,44	64000,00
802,88	64000,00
803,32	64000,00
803,76	64000,00
804,20	64000,00
804,64	64000,00
805,09	64000,00
805,53	64000,00
805,97	64000,00
806,41	64000,00
806,85	64000,00
807,29	64000,00
807,74	64000,00
808,18	64000,00
808,62	64000,00
809,06	64000,00
809,50	64000,00
809,94	64000,00
810,38	64000,00
810,82	64000,00
811,27	64000,00
811,71	64000,00
812,15	64000,00
812,59	64000,00
813,03	64000,00
813,47	64000,00
813,91	64000,00
814,35	64000,00
814,79	64000,00
815,23	64000,00
815,67	64000,00
816,12	64000,00
816,56	64000,00
817,00	64000,00
817,44	64000,00
817,88	64000,00
818,32	64000,00
818,76	64000,00
819,20	64000,00
819,64	64000,00
820,08	64000,00
820,52	64000,00
820,96	64000,00
821,40	64000,00
821,84	64000,00
822,28	64000,00
822,72	64000,00
823,16	64000,00
823,60	64000,00
824,04	64000,00
824,48	64000,00
824,92	64000,00
825,36	64000,00
825,80	64000,00
826,24	64000,00
826,68	64000,00
827,12	64000,00
827,56	64000,00
828,00	64000,00
828,44	64000,00
828,88	64000,00
829,32	64000,00
829,76	64000,00
830,20	64000,00
830,64	64000,00
831,08	64000,00
831,52	64000,00
831,96	64000,00
832,40	64000,00
832,84	64000,00
833,28	64000,00
833,72	64000,00
834,16	64000,00
834,60	64000,00
835,04	64000,00
835,48	64000,00
835,91	64000,00
836,35	64000,00
836,79	64000,00
837,23	64000,00
837,67	64000,00
838,11	64000,00
838,55	64000,00
838,99	64000,00
839,43	64000,00
839,87	64000,00
840,30	64000,00
840,74	64000,00
841,18	64000,00
841,62	64000,00
842,06	64000,00
842,50	64000,00
842,94	64000,00
843,38	64000,00
843,81	64000,00
844,25	64000,00
844,69	64000,00
845,13	64000,00
845,57	64000,00
846,01	64000,00
846,45	64000,00
846,88	64000,00
847,32	64000,00
847,76	64000,00
848,20	64000,00
848,64	64000,00
849,08	64000,00
849,51	64000,00
849,95	64000,00
850,39	64000,00
850,83	64000,00
851,27	64000,00
851,70	64000,00
852,14	64000,00
852,58	64000,00
853,02	64000,00
853,46	64000,00
853,89	64000,00
854,33	64000,00
854,77	64000,00
855,21	64000,00
855,65	64000,00
856,08	64000,00
856,52	64000,00
856,96	64000,00
857,40	64000,00
857,83	64000,00
858,27	64000,00
858,71	64000,00
859,15	64000,00
859,58	64000,00
860,02	64000,00
860,46	64000,00
860,89	64000,00
861,33	64000,00
861,77	64000,00
862,21	64000,00
862,64	64000,00
863,08	64000,00
863,52	64000,00
863,95	64000,00
864,39	64000,00
864,83	64000,00
865,27	64000,00
865,70	64000,00
866,14	64000,00
866,58	64000,00
867,01	64000,00
867,45	64000,00
867,89	64000,00
868,32	64000,00
868,76	64000,00
869,20	64000,00
869,63	64000,00
870,07	64000,00
870,51	64000,00
870,94	64000,00
871,38	64000,00
871,82	64000,00
872,25	64000,00
872,69	64000,00
873,13	64000,00
873,56	64000,00
874,00	64000,00
874,43	64000,00
874,87	64000,00
875,31	64000,00
875,74	64000,00
876,18	64000,00
876,61	64000,00
877,05	64000,00
877,49	64000,00
877,92	64000,00
878,36	64000,00
878,79	64000,00
879,23	64000,00
879,67	64000,00
880,10	64000,00
880,54	64000,00
880,97	64000,00
881,41	64000,00
881,84	64000,00
882,28	64000,00
882,72	64000,00
883,15	64000,00
883,59	64000,00
884,02	64000,00
884,46	64000,00
884,89	64000,00
885,33	64000,00
885,76	64000,00
886,20	64000,00
886,63	64000,00
887,07	64000,00
887,50	64000,00
887,94	64000,00
888,37	64000,00
888,81	64000,00
889,24	64000,00
889,68	64000,00
890,11	64000,00
890,55	64000,00
890,98	64000,00
891,42	64000,00
891,85	64000,00
892,29	64000,00
892,72	64000,00
893,16	64000,00
893,59	64000,00
894,03	64000,00
894,46	64000,00
894,90	64000,00
895,33	64000,00
895,77	64000,00
896,20	64000,00
896,63	64000,00
897,07	64000,00
897,50	64000,00
897,94	64000,00
898,37	64000,00
898,81	64000,00
899,24	64000,00
899,68	64000,00
900,11	64000,00
900,54	64000,00
900,98	64000,00
901,41	64000,00
901,85	64000,00
902,28	64000,00
902,71	64000,00
903,15	64000,00
903,58	64000,00
904,02	64000,00
904,45	64000,00
904,88	64000,00
905,32	64000,00
905,75	64000,00
906,18	64000,00
906,62	64000,00
907,05	64000,00
907,48	64000,00
907,92	64000,00
908,35	64000,00
908,79	64000,00
909,22	64000,00
909,65	64000,00
910,09	64000,00
910,52	64000,00
910,95	64000,00
911,38	64000,00
911,82	64000,00
912,25	64000,00
912,68	64000,00
913,12	64000,00
913,55	64000,00
913,98	64000,00
914,42	64000,00
914,85	64000,00
915,28	64000,00
915,72	64000,00
916,15	64000,00
916,58	64000,00
917,01	64000,00
917,45	64000,00
917,88	64000,00
918,31	64000,00
918,74	64000,00
919,18	64000,00
919,61	64000,00
920,04	64000,00
920,47	64000,00
920,91	64000,00
921,34	64000,00
921,77	64000,00
922,20	64000,00
922,64	64000,00
923,07	64000,00
923,50	64000,00
923,93	64000,00
924,37	64000,00
924,80	64000,00
925,23	64000,00
925,66	64000,00
926,09	64000,00
926,53	64000,00
926,96	64000,00
927,39	64000,00
927,82	64000,00
928,25	64000,00
928,69	64000,00
929,12	64000,00
929,55	64000,00
929,98	64000,00
930,41	64000,00
930,84	64000,00
931,28	64000,00
931,71	64000,00
932,14	64000,00
932,57	64000,00
933,00	64000,00
933,43	64000,00
933,86	64000,00
934,30	64000,00
934,73	64000,00
935,16	64000,00
935,59	64000,00
936,02	64000,00
936,45	64000,00
936,88	64000,00
937,31	64000,00
937,75	64000,00
938,18	64000,00
938,61	64000,00
939,04	64000,00
939,47	64000,00
939,90	64000,00
940,33	64000,00
940,76	64000,00
941,19	64000,00
941,62	64000,00
942,05	64000,00
942,48	64000,00
942,91	64000,00
943,35	64000,00
943,78	64000,00
944,21	64000,00
944,64	64000,00
945,07	64000,00
945,50	64000,00
945,93	64000,00
946,36	64000,00
946,79	64000,00
947,22	64000,00
947,65	64000,00
948,08	64000,00
948,51	64000,00
948,94	64000,00
949,37	64000,00
949,80	64000,00
950,23	64000,00
950,66	64000,00
951,09	64000,00
951,52	64000,00
951,95	64000,00
952,38	64000,00
952,81	64000,00
953,24	64000,00
953,67	64000,00
954,10	64000,00
954,53	64000,00
954,96	64000,00
955,39	64000,00
955,82	64000,00
956,25	64000,00
956,68	64000,00
957,11	64000,00
957,53	64000,00
957,96	64000,00
958,39	64000,00
958,82	64000,00
959,25	64000,00
959,68	64000,00
960,11	64000,00
960,54	64000,00
960,97	64000,00
961,40	64000,00
961,83	64000,00
962,26	64000,00
962,68	64000,00
963,11	64000,00
963,54	64000,00
963,97	64000,00
964,40	64000,00
964,83	64000,00
965,26	64000,00
965,69	64000,00
966,11	64000,00
966,54	64000,00
966,97	64000,00
967,40	64000,00
967,83	64000,00
968,26	64000,00
968,69	64000,00
969,11	64000,00
969,54	64000,00
969,97	64000,00
970,40	64000,00
970,83	64000,00
971,26	64000,00
971,68	64000,00
972,11	64000,00
972,54	64000,00
972,97	64000,00
973,40	64000,00
973,82	64000,00
974,25	64000,00
974,68	64000,00
975,11	64000,00
975,54	64000,00
975,96	64000,00
976,39	64000,00
976,82	64000,00
977,25	64000,00
977,67	64000,00
978,10	64000,00
978,53	64000,00
978,96	64000,00
979,38	64000,00
979,81	64000,00
980,24	64000,00
980,67	64000,00
981,09	64000,00
981,52	64000,00
981,95	64000,00
982,38	64000,00
982,80	64000,00
983,23	64000,00
983,66	64000,00
984,08	64000,00
984,51	64000,00
984,94	64000,00
985,37	64000,00
985,79	64000,00
986,22	64000,00
986,65	64000,00
987,07	64000,00
987,50	64000,00
987,93	64000,00
988,35	64000,00
988,78	64000,00
989,21	64000,00
989,63	64000,00
990,06	64000,00
990,49	64000,00
990,91	64000,00
991,34	64000,00
991,77	64000,00
992,19	64000,00
992,62	64000,00
993,05	64000,00
993,47	64000,00
993,90	64000,00
994,32	64000,00
994,75	64000,00
995,18	64000,00
995,60	64000,00
996,03	64000,00
996,45	64000,00
996,88	64000,00
997,31	64000,00
997,73	64000,00
998,16	64000,00
998,58	64000,00
999,01	64000,00
999,44	64000,00
999,86	64000,00
1000,29	64000,00
1000,71	64000,00
1001,14	64000,00
1001,56	64000,00
1001,99	64000,00
1002,41	64000,00
1002,84	64000,00
1003,27	64000,00
1003,69	64000,00
1004,12	64000,00
1004,54	64000,00
1004,97	64000,00
1005,39	64000,00
1005,82	64000,00
1006,24	64000,00
1006,67	64000,00
1007,09	64000,00
1007,52	64000,00
1007,94	64000,00
1008,37	64000,00
1008,79	64000,00
1009,22	64000,00
1009,64	64000,00
1010,07	64000,00
1010,49	64000,00
1010,92	64000,00
1011,34	64000,00
1011,77	64000,00
1012,19	64000,00
1012,62	64000,00
1013,04	64000,00
1013,46	64000,00
1013,89	64000,00
1014,31	64000,00
1014,74	64000,00
1015,16	64000,00
1015,59	64000,00
1016,01	64000,00
1016,44	64000,00
1016,86	64000,00
1017,28	64000,00
1017,71	64000,00
1018,13	64000,00
1018,56	64000,00
1018,98	64000,00
1019,40	64000,00
1019,83	64000,00
1020,25	64000,00
1020,68	64000,00
1021,10	64000,00
1021,52	64000,00
1021,95	64000,00
1022,37	64000,00
1022,79	64000,00
1023,22	64000,00
1023,64	64000,00
1024,07	64000,00
1024,49	64000,00
1024,91	64000,00
1025,34	64000,00
1025,76	64000,00
1026,18	64000,00
1026,61	64000,00
1027,03	64000,00
1027,45	64000,00
1027,88	64000,00
1028,30	64000,00
1028,72	64000,00
1029,15	64000,00
1029,57	64000,00
1029,99	64000,00
1030,41	64000,00
1030,84	64000,00
1031,26	64000,00
1031,68	64000,00
1032,11	64000,00
1032,53	64000,00
1032,95	64000,00
1033,37	64000,00
1033,80	64000,00
1034,22	64000,00
1034,64	64000,00
1035,06	64000,00
1035,49	64000,00
1035,91	64000,00
1036,33	64000,00
1036,75	64000,00
1037,18	64000,00
1037,60	64000,00
1038,02	64000,00
1038,44	64000,00
1038,87	64000,00
1039,29	64000,00
1039,71	64000,00
1040,13	64000,00
1040,55	64000,00
1040,98	64000,00
1041,40	64000,00
1041,82	64000,00
1042,24	64000,00
1042,66	64000,00
1043,09	64000,00
1043,51	64000,00
1043,93	64000,00
1044,35	64000,00
1044,77	64000,00
1045,20	64000,00
1045,62	64000,00
1046,04	64000,00
1046,46	64000,00
1046,88	64000,00
1047,30	64000,00
1047,72	64000,00
1048,15	64000,00
1048,57	64000,00
1048,99	64000,00
1049,41	64000,00
1049,83	64000,00
1050,25	64000,00
1050,67	64000,00
1051,09	64000,00
1051,52	64000,00
1051,94	64000,00
1052,36	64000,00
1052,78	64000,00
1053,20	64000,00
1053,62	64000,00
1054,04	64000,00
1054,46	64000,00
1054,88	64000,00
1055,30	64000,00
1055,72	64000,00
1056,14	64000,00
1056,57	64000,00
1056,99	64000,00
1057,41	64000,00
1057,83	64000,00
1058,25	64000,00
1058,67	64000,00
1059,09	64000,00
1059,51	64000,00
1059,93	64000,00
1060,35	64000,00
1060,77	64000,00
1061,19	64000,00
1061,61	63962,40
1062,03	63586,60
1062,45	63151,00
1062,87	63278,20
1063,29	63100,80
1063,71	62398,00
1064,13	61977,30
1064,55	61478,50
1064,97	61668,20
1065,39	60866,90
1065,81	60261,40
1066,23	59768,90
1066,65	58745,30
1067,07	58811,90
1067,49	57390,40
1067,91	56305,50
1068,33	55339,40
1068,75	55388,60
1069,17	54768,50
1069,59	54001,30
1070,00	52903,60
1070,42	52776,80
1070,84	51887,70
1071,26	51180,70
1071,68	50778,10
1072,10	51070,80
1072,52	50412,10
1072,94	49888,30
1073,36	49854,70
1073,78	49776,30
1074,20	49815,20
1074,62	49432,30
1075,03	49145,60
1075,45	49192,80
1075,87	49309,50
1076,29	48628,80
1076,71	48657,00
1077,13	48482,40
1077,55	46912,20
1077,97	46858,10
1078,38	46048,50
1078,80	45455,10
1079,22	44906,30
1079,64	44081,20
1080,06	43510,20
1080,48	43193,20
1080,89	42543,20
1081,31	42063,20
1081,73	41758,60
1082,15	41357,70
1082,57	41312,70
1082,99	40675,70
1083,40	40269,10
1083,82	40641,50
1084,24	39589,50
1084,66	39517,70
1085,08	39596,10
1085,49	38939,40
1085,91	39509,10
1086,33	48003,40
1086,75	39268,50
1087,17	38564,90
1087,58	38392,30
1088,00	38200,90
1088,42	38335,90
1088,84	37522,30
1089,25	36755,10
1089,67	36434,90
1090,09	35936,80
1090,51	35194,50
1090,92	34910,30
1091,34	34204,50
1091,76	33936,10
1092,18	33380,20
1092,59	32992,10
1093,01	32526,80
1093,43	32376,40
1093,84	31809,60
1094,26	31768,80
1094,68	31619,60
1095,10	30922,60
1095,51	31026,50
1095,93	30668,40
1096,35	30938,60
1096,76	30742,10
1097,18	30570,00
1097,60	30113,90
1098,01	29904,60
1098,43	29411,20
1098,85	29232,00
1099,26	28672,60
1099,68	28366,60
1100,10	27399,40
1100,51	27028,30
1100,93	26685,30
1101,35	26292,10
1101,76	26090,80
1102,18	28652,30
1102,60	26125,60
1103,01	24702,40
1103,43	25271,30
1103,84	25222,40
1104,26	24823,90
1104,68	24969,40
1105,09	24150,80
1105,51	24108,70
1105,92	24543,10
1106,34	23289,10
1106,76	23448,80
1107,17	22880,20
1107,59	22443,60
1108,00	21339,20
1108,42	21462,30
1108,83	20914,50
1109,25	21087,40
1109,67	20748,80
1110,08	20766,60
1110,50	20502,60
1110,91	20690,40
1111,33	20017,60
1111,74	19317,50
1112,16	19046,60
1112,57	18617,10
1112,99	17987,10
1113,41	18040,00
1113,82	17431,10
1114,24	16376,10
1114,65	15351,80
1115,07	14126,20
1115,48	13579,00
1115,90	1951,20
1116,31	2217,00
1116,73	2196,30
1117,14	2194,30
>>>>>End Processed Spectral Data<<<<<
