SpectraSuite Data File
++++++++++++++++++++++++++++++++++++
Date: Mon Oct 13 13:44:12 EEST 2014
User: OO Maya
Dark Spectrum Present: No
Reference Spectrum Present: No
Number of Sampled Component Spectra: 1
Spectrometers: MAYP11278
Integration Time (usec): 5000000 (MAYP11278)
Spectra Averaged: 10 (MAYP11278)
Boxcar Smoothing: 0 (MAYP11278)
Correct for Electrical Dark: No (MAYP11278)
Strobe/Lamp Enabled: No (MAYP11278)
Correct for Detector Non-linearity: No (MAYP11278)
Correct for Stray Light: No (MAYP11278)
Number of Pixels in Processed Spectrum: 2068
>>>>>Begin Processed Spectral Data<<<<<
188,22	2315,40
188,70	2225,00
189,18	2198,90
189,66	2197,60
190,13	11410,80
190,61	12481,90
191,09	12859,20
191,57	13224,10
192,05	13829,30
192,53	13271,30
193,00	13057,00
193,48	12768,80
193,96	13246,70
194,44	13217,90
194,92	13541,60
195,40	13116,00
195,87	13759,30
196,35	13114,80
196,83	13253,10
197,31	14684,60
197,79	13248,80
198,26	12893,60
198,74	13166,00
199,22	12991,00
199,70	13532,10
200,18	13797,00
200,65	13182,20
201,13	13217,70
201,61	13704,40
202,09	13663,50
202,56	13606,90
203,04	12795,20
203,52	13480,30
204,00	12896,60
204,47	13793,60
204,95	14012,90
205,43	13089,20
205,91	13082,60
206,39	14161,60
206,86	13245,20
207,34	13563,70
207,82	14724,70
208,30	13452,80
208,77	13775,40
209,25	13230,40
209,73	13873,30
210,20	13741,00
210,68	13371,10
211,16	13387,70
211,64	13693,50
212,11	13480,80
212,59	13098,70
213,07	14394,10
213,55	13704,20
214,02	13193,50
214,50	14222,20
214,98	13567,50
215,45	14216,40
215,93	13676,50
216,41	13799,20
216,89	13726,60
217,36	13750,90
217,84	13108,40
218,32	13417,40
218,79	14163,60
219,27	12736,20
219,75	13051,80
220,22	13180,00
220,70	13445,50
221,18	14745,90
221,65	13147,30
222,13	14005,20
222,61	13213,70
223,08	13955,90
223,56	13332,80
224,04	13937,90
224,51	13443,70
224,99	13243,70
225,47	13021,90
225,94	13412,70
226,42	13181,30
226,90	13588,20
227,37	14048,70
227,85	13418,60
228,33	13831,60
228,80	13947,80
229,28	13838,10
229,76	13476,70
230,23	13542,30
230,71	13345,60
231,18	13908,90
231,66	13956,60
232,14	13574,90
232,61	13698,50
233,09	13078,00
233,57	13597,90
234,04	13780,00
234,52	15490,70
234,99	13802,40
235,47	13321,20
235,95	13154,20
236,42	13027,10
236,90	14046,80
237,37	14725,50
237,85	13321,70
238,33	13623,90
238,80	13651,50
239,28	13641,70
239,75	13564,70
240,23	12973,90
240,70	13947,20
241,18	14359,20
241,66	13681,90
242,13	13486,60
242,61	14089,00
243,08	14256,50
243,56	13089,60
244,03	13215,30
244,51	14047,10
244,99	14339,10
245,46	13482,00
245,94	14239,20
246,41	37742,70
246,89	12830,50
247,36	13748,80
247,84	13669,90
248,31	13724,90
248,79	13837,50
249,26	12874,70
249,74	13745,60
250,22	14046,30
250,69	13804,10
251,17	14433,20
251,64	13764,90
252,12	14769,10
252,59	14409,50
253,07	13432,70
253,54	14379,70
254,02	13746,00
254,49	13646,20
254,97	13842,60
255,44	13867,50
255,92	14165,40
256,39	13445,30
256,87	13864,10
257,34	13972,50
257,82	14257,30
258,29	15386,10
258,77	13841,60
259,24	13445,60
259,72	13890,00
260,19	14000,20
260,67	14625,00
261,14	13627,30
261,61	13530,20
262,09	14368,50
262,56	13415,00
263,04	14002,30
263,51	13714,80
263,99	13178,70
264,46	14168,50
264,94	14305,20
265,41	13521,00
265,89	13804,80
266,36	13914,10
266,83	14235,50
267,31	13675,40
267,78	13788,20
268,26	13989,30
268,73	14051,10
269,21	13059,30
269,68	13358,90
270,15	13506,20
270,63	14016,70
271,10	14352,20
271,58	13548,50
272,05	13797,10
272,53	13137,60
273,00	13252,90
273,47	12936,60
273,95	13886,00
274,42	15717,80
274,90	14082,80
275,37	14200,20
275,84	13503,20
276,32	13744,70
276,79	14047,90
277,26	14180,40
277,74	13154,20
278,21	13530,80
278,69	13059,20
279,16	15632,80
279,63	13280,20
280,11	13247,70
280,58	15804,20
281,05	14567,30
281,53	16009,90
282,00	14020,00
282,48	14828,70
282,95	13991,10
283,42	14025,10
283,90	14133,00
284,37	13492,60
284,84	13412,20
285,32	14275,80
285,79	13826,90
286,26	14136,40
286,74	14058,50
287,21	13201,30
287,68	14128,90
288,16	14736,80
288,63	13814,80
289,10	14383,40
289,58	13101,40
290,05	14844,90
290,52	13544,40
291,00	14113,90
291,47	13612,30
291,94	14077,10
292,41	15113,50
292,89	13566,90
293,36	14480,20
293,83	13679,30
294,31	14201,90
294,78	14224,40
295,25	13682,00
295,73	14041,80
296,20	14186,40
296,67	15044,00
297,14	14900,90
297,62	14393,40
298,09	14235,90
298,56	14227,60
299,03	13770,40
299,51	14843,30
299,98	13813,70
300,45	14169,40
300,92	13686,90
301,40	14459,10
301,87	14471,90
302,34	14433,40
302,82	13595,30
303,29	14431,90
303,76	14487,40
304,23	13749,00
304,70	13906,60
305,18	13707,30
305,65	14158,20
306,12	14266,70
306,59	14220,20
307,07	14416,90
307,54	13764,60
308,01	13828,40
308,48	14104,00
308,95	13742,50
309,43	14458,70
309,90	14580,60
310,37	14278,80
310,84	14151,90
311,32	14427,90
311,79	13821,60
312,26	14740,60
312,73	14068,30
313,20	15064,50
313,68	13759,40
314,15	13866,30
314,62	14105,10
315,09	13827,60
315,56	13710,30
316,03	14617,50
316,51	14349,70
316,98	14218,00
317,45	14464,20
317,92	14251,40
318,39	15680,80
318,86	14107,00
319,34	14048,20
319,81	13516,10
320,28	14409,10
320,75	15273,80
321,22	14694,00
321,69	14143,40
322,16	13441,60
322,64	13702,80
323,11	15159,40
323,58	14038,20
324,05	15617,20
324,52	13472,70
324,99	14397,30
325,46	14213,30
325,94	14229,40
326,41	14326,00
326,88	14305,70
327,35	14825,70
327,82	14750,30
328,29	14712,80
328,76	14559,90
329,23	14314,10
329,70	14253,00
330,18	14271,90
330,65	14059,50
331,12	14834,00
331,59	14593,70
332,06	15300,20
332,53	14098,20
333,00	15642,20
333,47	15164,20
333,94	15057,10
334,41	15494,40
334,88	14862,40
335,35	15049,70
335,83	16818,10
336,30	14131,30
336,77	14594,10
337,24	14458,40
337,71	14805,90
338,18	14426,60
338,65	14422,70
339,12	15402,50
339,59	14998,30
340,06	13980,50
340,53	14035,30
341,00	14018,30
341,47	14601,30
341,94	15033,00
342,41	14196,90
342,88	14534,00
343,35	14757,90
343,82	14467,30
344,29	14154,40
344,76	14275,30
345,23	13805,90
345,70	14235,70
346,17	14586,70
346,64	13979,10
347,11	13852,40
347,58	15032,60
348,05	13899,80
348,52	14800,50
348,99	14259,00
349,46	13547,10
349,93	14225,10
350,40	14637,30
350,87	14225,00
351,34	13763,20
351,81	14341,20
352,28	15159,50
352,75	14291,50
353,22	13991,90
353,69	14154,60
354,16	14466,40
354,63	14218,10
355,10	14460,90
355,57	14238,60
356,04	14971,60
356,51	13832,80
356,98	15092,80
357,45	13715,50
357,92	15410,30
358,39	14537,50
358,86	13564,40
359,33	13740,60
359,80	13903,30
360,27	13928,70
360,74	14716,50
361,20	15003,90
361,67	13956,30
362,14	14096,70
362,61	14171,20
363,08	14010,90
363,55	14033,70
364,02	15368,80
364,49	14374,20
364,96	13731,70
365,43	14482,10
365,90	13908,90
366,37	13573,10
366,83	14289,60
367,30	14212,30
367,77	23855,30
368,24	13277,00
368,71	13722,70
369,18	14629,50
369,65	13602,20
370,12	14653,60
370,59	14256,80
371,05	13884,30
371,52	19349,40
371,99	14212,20
372,46	13719,40
372,93	13354,20
373,40	13788,50
373,87	14076,50
374,33	13491,80
374,80	13653,50
375,27	14315,10
375,74	13371,20
376,21	14946,50
376,68	13903,60
377,15	13589,40
377,61	13516,80
378,08	14332,70
378,55	14199,90
379,02	13935,90
379,49	14004,20
379,96	13956,60
380,42	14334,20
380,89	14943,10
381,36	14106,60
381,83	14918,10
382,30	14849,40
382,76	13429,10
383,23	14241,40
383,70	13876,60
384,17	14608,20
384,64	14063,60
385,10	17002,60
385,57	14152,80
386,04	13963,80
386,51	14013,50
386,98	15214,90
387,44	13811,20
387,91	13709,40
388,38	14878,90
388,85	14616,60
389,31	15204,60
389,78	14348,20
390,25	15194,30
390,72	15148,30
391,19	15575,80
391,65	15709,20
392,12	15944,00
392,59	16348,20
393,06	16412,60
393,52	16781,80
393,99	18627,90
394,46	17738,30
394,93	18860,40
395,39	18359,80
395,86	19630,90
396,33	22470,30
396,80	19608,00
397,26	21145,10
397,73	21877,80
398,20	21580,10
398,66	22612,30
399,13	22931,00
399,60	23321,70
400,07	24944,20
400,53	24437,10
401,00	25414,10
401,47	25888,10
401,93	26906,20
402,40	27488,50
402,87	27901,00
403,34	28042,80
403,80	29788,40
404,27	29318,50
404,74	30656,80
405,20	31464,10
405,67	31720,10
406,14	31083,20
406,60	32372,10
407,07	32699,10
407,54	34073,70
408,00	33422,60
408,47	33898,90
408,94	34588,90
409,40	34188,40
409,87	35705,10
410,34	35163,50
410,80	36653,00
411,27	36079,40
411,74	37505,40
412,20	37087,80
412,67	36883,70
413,14	38306,20
413,60	38257,90
414,07	39021,00
414,53	39584,70
415,00	40451,30
415,47	39867,70
415,93	41098,80
416,40	40734,80
416,87	41061,10
417,33	42288,40
417,80	42021,10
418,26	41971,00
418,73	42489,50
419,20	42839,70
419,66	43499,30
420,13	43167,50
420,59	44359,30
421,06	43718,30
421,53	44548,10
421,99	44705,90
422,46	45637,40
422,92	45514,90
423,39	45963,00
423,86	46664,20
424,32	47263,00
424,79	47129,40
425,25	47895,90
425,72	47849,40
426,18	48913,20
426,65	48404,70
427,11	49600,30
427,58	49711,40
428,05	50047,80
428,51	49495,30
428,98	50852,40
429,44	50968,10
429,91	51075,90
430,37	51693,90
430,84	53577,20
431,30	51881,00
431,77	52550,50
432,23	53800,20
432,70	53761,70
433,17	53767,80
433,63	53908,10
434,10	54573,00
434,56	54944,90
435,03	55784,10
435,49	55324,90
435,96	56567,30
436,42	56657,30
436,89	56526,80
437,35	57709,10
437,82	57900,90
438,28	58251,80
438,75	58300,80
439,21	58743,70
439,68	61272,00
440,14	59918,80
440,61	60578,40
441,07	61082,40
441,54	60541,20
442,00	61083,50
442,47	62961,50
442,93	61644,30
443,39	62565,60
443,86	63020,60
444,32	62725,30
444,79	64000,00
445,25	64000,00
445,72	64000,00
446,18	64000,00
446,65	64000,00
447,11	64000,00
447,58	64000,00
448,04	64000,00
448,50	64000,00
448,97	64000,00
449,43	64000,00
449,90	64000,00
450,36	64000,00
450,83	64000,00
451,29	64000,00
451,75	64000,00
452,22	64000,00
452,68	64000,00
453,15	64000,00
453,61	64000,00
454,08	64000,00
454,54	64000,00
455,00	64000,00
455,47	64000,00
455,93	64000,00
456,40	64000,00
456,86	64000,00
457,32	64000,00
457,79	64000,00
458,25	64000,00
458,71	64000,00
459,18	64000,00
459,64	64000,00
460,11	64000,00
460,57	64000,00
461,03	64000,00
461,50	64000,00
461,96	64000,00
462,42	64000,00
462,89	64000,00
463,35	64000,00
463,81	64000,00
464,28	64000,00
464,74	64000,00
465,21	64000,00
465,67	64000,00
466,13	64000,00
466,60	64000,00
467,06	64000,00
467,52	64000,00
467,99	64000,00
468,45	64000,00
468,91	64000,00
469,37	64000,00
469,84	64000,00
470,30	64000,00
470,76	64000,00
471,23	64000,00
471,69	64000,00
472,15	64000,00
472,62	64000,00
473,08	64000,00
473,54	64000,00
474,01	64000,00
474,47	64000,00
474,93	64000,00
475,39	64000,00
475,86	64000,00
476,32	64000,00
476,78	64000,00
477,25	64000,00
477,71	64000,00
478,17	64000,00
478,63	64000,00
479,10	64000,00
479,56	64000,00
480,02	64000,00
480,48	64000,00
480,95	64000,00
481,41	64000,00
481,87	64000,00
482,33	64000,00
482,80	64000,00
483,26	64000,00
483,72	64000,00
484,18	64000,00
484,65	64000,00
485,11	64000,00
485,57	64000,00
486,03	64000,00
486,49	64000,00
486,96	64000,00
487,42	64000,00
487,88	64000,00
488,34	64000,00
488,80	64000,00
489,27	64000,00
489,73	64000,00
490,19	64000,00
490,65	64000,00
491,11	64000,00
491,58	64000,00
492,04	64000,00
492,50	64000,00
492,96	64000,00
493,42	64000,00
493,89	64000,00
494,35	64000,00
494,81	64000,00
495,27	64000,00
495,73	64000,00
496,19	64000,00
496,66	64000,00
497,12	64000,00
497,58	64000,00
498,04	64000,00
498,50	64000,00
498,96	64000,00
499,43	64000,00
499,89	64000,00
500,35	64000,00
500,81	64000,00
501,27	64000,00
501,73	64000,00
502,19	64000,00
502,65	64000,00
503,12	64000,00
503,58	64000,00
504,04	64000,00
504,50	64000,00
504,96	64000,00
505,42	64000,00
505,88	64000,00
506,34	64000,00
506,80	64000,00
507,27	64000,00
507,73	64000,00
508,19	64000,00
508,65	64000,00
509,11	64000,00
509,57	64000,00
510,03	64000,00
510,49	64000,00
510,95	64000,00
511,41	64000,00
511,87	64000,00
512,33	64000,00
512,80	64000,00
513,26	64000,00
513,72	64000,00
514,18	64000,00
514,64	64000,00
515,10	64000,00
515,56	64000,00
516,02	64000,00
516,48	64000,00
516,94	64000,00
517,40	64000,00
517,86	64000,00
518,32	64000,00
518,78	64000,00
519,24	64000,00
519,70	64000,00
520,16	64000,00
520,62	64000,00
521,08	64000,00
521,54	64000,00
522,00	64000,00
522,46	64000,00
522,92	64000,00
523,38	64000,00
523,84	64000,00
524,30	64000,00
524,76	64000,00
525,22	64000,00
525,68	64000,00
526,14	64000,00
526,60	64000,00
527,06	64000,00
527,52	64000,00
527,98	64000,00
528,44	64000,00
528,90	64000,00
529,36	64000,00
529,82	64000,00
530,28	64000,00
530,74	64000,00
531,20	64000,00
531,66	64000,00
532,12	64000,00
532,58	64000,00
533,04	64000,00
533,50	64000,00
533,96	64000,00
534,42	64000,00
534,88	64000,00
535,33	64000,00
535,79	64000,00
536,25	64000,00
536,71	64000,00
537,17	64000,00
537,63	64000,00
538,09	64000,00
538,55	64000,00
539,01	64000,00
539,47	64000,00
539,93	64000,00
540,39	64000,00
540,84	64000,00
541,30	64000,00
541,76	64000,00
542,22	64000,00
542,68	64000,00
543,14	64000,00
543,60	64000,00
544,06	64000,00
544,52	64000,00
544,97	64000,00
545,43	64000,00
545,89	64000,00
546,35	64000,00
546,81	64000,00
547,27	64000,00
547,73	64000,00
548,19	64000,00
548,64	64000,00
549,10	64000,00
549,56	64000,00
550,02	64000,00
550,48	64000,00
550,94	64000,00
551,39	64000,00
551,85	64000,00
552,31	64000,00
552,77	64000,00
553,23	64000,00
553,69	64000,00
554,14	64000,00
554,60	64000,00
555,06	64000,00
555,52	64000,00
555,98	64000,00
556,43	64000,00
556,89	64000,00
557,35	64000,00
557,81	64000,00
558,27	64000,00
558,72	64000,00
559,18	64000,00
559,64	64000,00
560,10	64000,00
560,56	64000,00
561,01	64000,00
561,47	64000,00
561,93	64000,00
562,39	64000,00
562,85	64000,00
563,30	64000,00
563,76	64000,00
564,22	64000,00
564,68	64000,00
565,13	64000,00
565,59	64000,00
566,05	64000,00
566,51	64000,00
566,96	64000,00
567,42	64000,00
567,88	64000,00
568,34	64000,00
568,79	64000,00
569,25	64000,00
569,71	64000,00
570,16	64000,00
570,62	64000,00
571,08	64000,00
571,54	64000,00
571,99	64000,00
572,45	64000,00
572,91	64000,00
573,36	64000,00
573,82	64000,00
574,28	64000,00
574,74	64000,00
575,19	64000,00
575,65	64000,00
576,11	64000,00
576,56	64000,00
577,02	64000,00
577,48	64000,00
577,93	64000,00
578,39	64000,00
578,85	64000,00
579,30	64000,00
579,76	64000,00
580,22	64000,00
580,67	64000,00
581,13	64000,00
581,59	64000,00
582,04	64000,00
582,50	64000,00
582,96	64000,00
583,41	64000,00
583,87	64000,00
584,33	64000,00
584,78	64000,00
585,24	64000,00
585,69	64000,00
586,15	64000,00
586,61	64000,00
587,06	64000,00
587,52	64000,00
587,98	64000,00
588,43	64000,00
588,89	64000,00
589,34	64000,00
589,80	64000,00
590,26	64000,00
590,71	64000,00
591,17	64000,00
591,62	64000,00
592,08	64000,00
592,54	64000,00
592,99	64000,00
593,45	64000,00
593,90	64000,00
594,36	64000,00
594,81	64000,00
595,27	64000,00
595,73	64000,00
596,18	64000,00
596,64	64000,00
597,09	64000,00
597,55	64000,00
598,00	64000,00
598,46	64000,00
598,92	64000,00
599,37	64000,00
599,83	64000,00
600,28	64000,00
600,74	64000,00
601,19	64000,00
601,65	64000,00
602,10	64000,00
602,56	64000,00
603,01	64000,00
603,47	64000,00
603,92	64000,00
604,38	64000,00
604,83	64000,00
605,29	64000,00
605,74	64000,00
606,20	64000,00
606,65	64000,00
607,11	64000,00
607,56	64000,00
608,02	64000,00
608,47	64000,00
608,93	64000,00
609,38	64000,00
609,84	64000,00
610,29	64000,00
610,75	64000,00
611,20	64000,00
611,66	64000,00
612,11	64000,00
612,57	64000,00
613,02	64000,00
613,48	64000,00
613,93	64000,00
614,39	64000,00
614,84	64000,00
615,30	64000,00
615,75	64000,00
616,20	64000,00
616,66	64000,00
617,11	64000,00
617,57	64000,00
618,02	64000,00
618,48	64000,00
618,93	64000,00
619,38	64000,00
619,84	64000,00
620,29	64000,00
620,75	64000,00
621,20	64000,00
621,66	64000,00
622,11	64000,00
622,56	64000,00
623,02	64000,00
623,47	64000,00
623,93	64000,00
624,38	64000,00
624,83	64000,00
625,29	64000,00
625,74	64000,00
626,20	64000,00
626,65	64000,00
627,10	64000,00
627,56	64000,00
628,01	64000,00
628,46	64000,00
628,92	64000,00
629,37	64000,00
629,82	64000,00
630,28	64000,00
630,73	64000,00
631,19	64000,00
631,64	64000,00
632,09	64000,00
632,55	64000,00
633,00	64000,00
633,45	64000,00
633,91	64000,00
634,36	64000,00
634,81	64000,00
635,27	64000,00
635,72	64000,00
636,17	64000,00
636,63	64000,00
637,08	64000,00
637,53	64000,00
637,99	64000,00
638,44	64000,00
638,89	64000,00
639,34	64000,00
639,80	64000,00
640,25	64000,00
640,70	64000,00
641,16	64000,00
641,61	64000,00
642,06	64000,00
642,51	64000,00
642,97	64000,00
643,42	64000,00
643,87	64000,00
644,33	64000,00
644,78	64000,00
645,23	64000,00
645,68	64000,00
646,14	64000,00
646,59	64000,00
647,04	64000,00
647,49	64000,00
647,95	64000,00
648,40	64000,00
648,85	64000,00
649,30	64000,00
649,76	64000,00
650,21	64000,00
650,66	64000,00
651,11	64000,00
651,57	64000,00
652,02	64000,00
652,47	64000,00
652,92	64000,00
653,37	64000,00
653,83	64000,00
654,28	64000,00
654,73	64000,00
655,18	64000,00
655,63	64000,00
656,09	64000,00
656,54	64000,00
656,99	64000,00
657,44	64000,00
657,89	64000,00
658,35	64000,00
658,80	64000,00
659,25	64000,00
659,70	64000,00
660,15	64000,00
660,60	64000,00
661,06	64000,00
661,51	64000,00
661,96	64000,00
662,41	64000,00
662,86	64000,00
663,31	64000,00
663,77	64000,00
664,22	64000,00
664,67	64000,00
665,12	64000,00
665,57	64000,00
666,02	64000,00
666,47	64000,00
666,93	64000,00
667,38	64000,00
667,83	64000,00
668,28	64000,00
668,73	64000,00
669,18	64000,00
669,63	64000,00
670,08	64000,00
670,53	64000,00
670,99	64000,00
671,44	64000,00
671,89	64000,00
672,34	64000,00
672,79	64000,00
673,24	64000,00
673,69	64000,00
674,14	64000,00
674,59	64000,00
675,04	64000,00
675,49	64000,00
675,95	64000,00
676,40	64000,00
676,85	64000,00
677,30	64000,00
677,75	64000,00
678,20	64000,00
678,65	64000,00
679,10	64000,00
679,55	64000,00
680,00	64000,00
680,45	64000,00
680,90	64000,00
681,35	64000,00
681,80	64000,00
682,25	64000,00
682,70	64000,00
683,15	64000,00
683,60	64000,00
684,05	64000,00
684,50	64000,00
684,95	64000,00
685,40	64000,00
685,85	64000,00
686,30	64000,00
686,75	64000,00
687,20	64000,00
687,65	64000,00
688,10	64000,00
688,55	64000,00
689,00	64000,00
689,45	64000,00
689,90	64000,00
690,35	64000,00
690,80	64000,00
691,25	64000,00
691,70	64000,00
692,15	64000,00
692,60	64000,00
693,05	64000,00
693,50	64000,00
693,95	64000,00
694,40	64000,00
694,85	64000,00
695,30	64000,00
695,75	64000,00
696,20	64000,00
696,65	64000,00
697,10	64000,00
697,55	64000,00
698,00	64000,00
698,45	64000,00
698,90	64000,00
699,34	64000,00
699,79	64000,00
700,24	64000,00
700,69	64000,00
701,14	64000,00
701,59	64000,00
702,04	64000,00
702,49	64000,00
702,94	64000,00
703,39	64000,00
703,84	64000,00
704,28	64000,00
704,73	64000,00
705,18	64000,00
705,63	64000,00
706,08	64000,00
706,53	64000,00
706,98	64000,00
707,43	64000,00
707,87	64000,00
708,32	64000,00
708,77	64000,00
709,22	64000,00
709,67	64000,00
710,12	64000,00
710,57	64000,00
711,01	64000,00
711,46	64000,00
711,91	64000,00
712,36	64000,00
712,81	64000,00
713,26	64000,00
713,71	64000,00
714,15	64000,00
714,60	64000,00
715,05	64000,00
715,50	64000,00
715,95	64000,00
716,39	64000,00
716,84	64000,00
717,29	64000,00
717,74	64000,00
718,19	64000,00
718,63	64000,00
719,08	64000,00
719,53	64000,00
719,98	64000,00
720,43	64000,00
720,87	64000,00
721,32	64000,00
721,77	64000,00
722,22	64000,00
722,67	64000,00
723,11	64000,00
723,56	64000,00
724,01	64000,00
724,46	64000,00
724,90	64000,00
725,35	64000,00
725,80	64000,00
726,25	64000,00
726,69	64000,00
727,14	64000,00
727,59	64000,00
728,04	64000,00
728,48	64000,00
728,93	64000,00
729,38	64000,00
729,83	64000,00
730,27	64000,00
730,72	64000,00
731,17	64000,00
731,61	64000,00
732,06	64000,00
732,51	64000,00
732,96	64000,00
733,40	64000,00
733,85	64000,00
734,30	64000,00
734,74	64000,00
735,19	64000,00
735,64	64000,00
736,09	64000,00
736,53	64000,00
736,98	64000,00
737,43	64000,00
737,87	64000,00
738,32	64000,00
738,77	64000,00
739,21	64000,00
739,66	64000,00
740,11	64000,00
740,55	64000,00
741,00	64000,00
741,45	64000,00
741,89	64000,00
742,34	64000,00
742,79	64000,00
743,23	64000,00
743,68	64000,00
744,12	64000,00
744,57	64000,00
745,02	64000,00
745,46	64000,00
745,91	64000,00
746,36	64000,00
746,80	64000,00
747,25	64000,00
747,69	64000,00
748,14	64000,00
748,59	64000,00
749,03	64000,00
749,48	64000,00
749,92	64000,00
750,37	64000,00
750,82	64000,00
751,26	64000,00
751,71	64000,00
752,15	64000,00
752,60	64000,00
753,05	64000,00
753,49	64000,00
753,94	64000,00
754,38	64000,00
754,83	64000,00
755,27	64000,00
755,72	64000,00
756,17	64000,00
756,61	64000,00
757,06	64000,00
757,50	64000,00
757,95	64000,00
758,39	64000,00
758,84	64000,00
759,28	64000,00
759,73	64000,00
760,17	64000,00
760,62	64000,00
761,07	64000,00
761,51	64000,00
761,96	64000,00
762,40	64000,00
762,85	64000,00
763,29	64000,00
763,74	64000,00
764,18	64000,00
764,63	64000,00
765,07	64000,00
765,52	64000,00
765,96	64000,00
766,41	64000,00
766,85	64000,00
767,30	64000,00
767,74	64000,00
768,19	64000,00
768,63	64000,00
769,07	64000,00
769,52	64000,00
769,96	64000,00
770,41	64000,00
770,85	64000,00
771,30	64000,00
771,74	64000,00
772,19	64000,00
772,63	64000,00
773,08	64000,00
773,52	64000,00
773,97	64000,00
774,41	64000,00
774,85	64000,00
775,30	64000,00
775,74	64000,00
776,19	64000,00
776,63	64000,00
777,08	64000,00
777,52	64000,00
777,96	64000,00
778,41	64000,00
778,85	64000,00
779,30	64000,00
779,74	64000,00
780,18	64000,00
780,63	64000,00
781,07	64000,00
781,52	64000,00
781,96	64000,00
782,40	64000,00
782,85	64000,00
783,29	64000,00
783,74	64000,00
784,18	64000,00
784,62	64000,00
785,07	64000,00
785,51	64000,00
785,95	64000,00
786,40	64000,00
786,84	64000,00
787,28	64000,00
787,73	64000,00
788,17	64000,00
788,61	64000,00
789,06	64000,00
789,50	64000,00
789,94	64000,00
790,39	64000,00
790,83	64000,00
791,27	64000,00
791,72	64000,00
792,16	64000,00
792,60	64000,00
793,05	64000,00
793,49	64000,00
793,93	64000,00
794,38	64000,00
794,82	64000,00
795,26	64000,00
795,71	64000,00
796,15	64000,00
796,59	64000,00
797,03	64000,00
797,48	64000,00
797,92	64000,00
798,36	64000,00
798,81	64000,00
799,25	64000,00
799,69	64000,00
800,13	64000,00
800,58	64000,00
801,02	64000,00
801,46	64000,00
801,90	64000,00
802,35	64000,00
802,79	64000,00
803,23	64000,00
803,67	64000,00
804,12	64000,00
804,56	64000,00
805,00	64000,00
805,44	64000,00
805,89	64000,00
806,33	64000,00
806,77	64000,00
807,21	64000,00
807,66	64000,00
808,10	64000,00
808,54	64000,00
808,98	64000,00
809,42	64000,00
809,87	64000,00
810,31	64000,00
810,75	64000,00
811,19	64000,00
811,63	64000,00
812,08	64000,00
812,52	64000,00
812,96	64000,00
813,40	64000,00
813,84	64000,00
814,28	64000,00
814,73	64000,00
815,17	64000,00
815,61	64000,00
816,05	64000,00
816,49	64000,00
816,93	64000,00
817,38	64000,00
817,82	64000,00
818,26	64000,00
818,70	64000,00
819,14	64000,00
819,58	64000,00
820,03	64000,00
820,47	64000,00
820,91	64000,00
821,35	64000,00
821,79	64000,00
822,23	64000,00
822,67	64000,00
823,11	64000,00
823,55	64000,00
824,00	64000,00
824,44	64000,00
824,88	64000,00
825,32	64000,00
825,76	64000,00
826,20	64000,00
826,64	64000,00
827,08	64000,00
827,52	64000,00
827,96	64000,00
828,41	64000,00
828,85	64000,00
829,29	64000,00
829,73	64000,00
830,17	64000,00
830,61	64000,00
831,05	64000,00
831,49	64000,00
831,93	64000,00
832,37	64000,00
832,81	64000,00
833,25	64000,00
833,69	64000,00
834,13	64000,00
834,57	64000,00
835,01	64000,00
835,45	64000,00
835,89	64000,00
836,33	64000,00
836,77	64000,00
837,22	64000,00
837,66	64000,00
838,10	64000,00
838,54	64000,00
838,98	64000,00
839,42	64000,00
839,86	64000,00
840,30	64000,00
840,74	64000,00
841,18	64000,00
841,62	64000,00
842,06	64000,00
842,50	64000,00
842,94	64000,00
843,37	64000,00
843,81	64000,00
844,25	64000,00
844,69	64000,00
845,13	64000,00
845,57	64000,00
846,01	64000,00
846,45	64000,00
846,89	64000,00
847,33	64000,00
847,77	64000,00
848,21	64000,00
848,65	64000,00
849,09	64000,00
849,53	64000,00
849,97	64000,00
850,41	64000,00
850,85	64000,00
851,29	64000,00
851,73	64000,00
852,16	64000,00
852,60	64000,00
853,04	64000,00
853,48	64000,00
853,92	64000,00
854,36	64000,00
854,80	64000,00
855,24	64000,00
855,68	64000,00
856,12	64000,00
856,55	64000,00
856,99	64000,00
857,43	64000,00
857,87	64000,00
858,31	64000,00
858,75	64000,00
859,19	64000,00
859,63	64000,00
860,06	64000,00
860,50	64000,00
860,94	64000,00
861,38	64000,00
861,82	64000,00
862,26	64000,00
862,70	64000,00
863,13	64000,00
863,57	64000,00
864,01	64000,00
864,45	64000,00
864,89	64000,00
865,33	64000,00
865,76	64000,00
866,20	64000,00
866,64	64000,00
867,08	64000,00
867,52	64000,00
867,96	64000,00
868,39	64000,00
868,83	64000,00
869,27	64000,00
869,71	64000,00
870,15	64000,00
870,58	64000,00
871,02	64000,00
871,46	64000,00
871,90	64000,00
872,34	64000,00
872,77	64000,00
873,21	64000,00
873,65	64000,00
874,09	64000,00
874,52	64000,00
874,96	64000,00
875,40	64000,00
875,84	64000,00
876,27	64000,00
876,71	64000,00
877,15	64000,00
877,59	64000,00
878,02	64000,00
878,46	64000,00
878,90	64000,00
879,34	64000,00
879,77	64000,00
880,21	64000,00
880,65	64000,00
881,09	64000,00
881,52	64000,00
881,96	64000,00
882,40	64000,00
882,83	64000,00
883,27	64000,00
883,71	64000,00
884,14	64000,00
884,58	64000,00
885,02	64000,00
885,46	64000,00
885,89	64000,00
886,33	64000,00
886,77	64000,00
887,20	64000,00
887,64	64000,00
888,08	64000,00
888,51	64000,00
888,95	64000,00
889,39	64000,00
889,82	64000,00
890,26	64000,00
890,70	64000,00
891,13	64000,00
891,57	64000,00
892,01	64000,00
892,44	64000,00
892,88	64000,00
893,31	64000,00
893,75	64000,00
894,19	64000,00
894,62	64000,00
895,06	64000,00
895,50	64000,00
895,93	64000,00
896,37	64000,00
896,80	64000,00
897,24	64000,00
897,68	64000,00
898,11	64000,00
898,55	64000,00
898,98	64000,00
899,42	64000,00
899,86	64000,00
900,29	64000,00
900,73	64000,00
901,16	64000,00
901,60	64000,00
902,04	64000,00
902,47	64000,00
902,91	64000,00
903,34	64000,00
903,78	64000,00
904,21	64000,00
904,65	64000,00
905,09	64000,00
905,52	64000,00
905,96	64000,00
906,39	64000,00
906,83	64000,00
907,26	64000,00
907,70	64000,00
908,13	64000,00
908,57	64000,00
909,00	64000,00
909,44	64000,00
909,87	64000,00
910,31	64000,00
910,74	64000,00
911,18	64000,00
911,62	64000,00
912,05	64000,00
912,49	64000,00
912,92	64000,00
913,36	64000,00
913,79	64000,00
914,22	64000,00
914,66	64000,00
915,09	64000,00
915,53	64000,00
915,96	64000,00
916,40	64000,00
916,83	64000,00
917,27	64000,00
917,70	64000,00
918,14	64000,00
918,57	64000,00
919,01	64000,00
919,44	64000,00
919,88	64000,00
920,31	64000,00
920,75	64000,00
921,18	64000,00
921,61	64000,00
922,05	64000,00
922,48	64000,00
922,92	64000,00
923,35	64000,00
923,79	64000,00
924,22	64000,00
924,65	64000,00
925,09	64000,00
925,52	64000,00
925,96	64000,00
926,39	64000,00
926,82	64000,00
927,26	64000,00
927,69	64000,00
928,13	64000,00
928,56	64000,00
928,99	64000,00
929,43	64000,00
929,86	64000,00
930,30	64000,00
930,73	64000,00
931,16	64000,00
931,60	64000,00
932,03	64000,00
932,46	64000,00
932,90	64000,00
933,33	64000,00
933,76	64000,00
934,20	64000,00
934,63	64000,00
935,07	64000,00
935,50	64000,00
935,93	64000,00
936,37	64000,00
936,80	64000,00
937,23	64000,00
937,67	64000,00
938,10	64000,00
938,53	64000,00
938,96	64000,00
939,40	64000,00
939,83	64000,00
940,26	64000,00
940,70	64000,00
941,13	64000,00
941,56	64000,00
942,00	64000,00
942,43	64000,00
942,86	64000,00
943,29	64000,00
943,73	64000,00
944,16	64000,00
944,59	64000,00
945,03	64000,00
945,46	64000,00
945,89	64000,00
946,32	64000,00
946,76	64000,00
947,19	64000,00
947,62	64000,00
948,05	64000,00
948,49	64000,00
948,92	64000,00
949,35	64000,00
949,78	64000,00
950,22	64000,00
950,65	64000,00
951,08	64000,00
951,51	64000,00
951,95	64000,00
952,38	64000,00
952,81	64000,00
953,24	64000,00
953,67	64000,00
954,11	64000,00
954,54	64000,00
954,97	64000,00
955,40	64000,00
955,83	64000,00
956,27	64000,00
956,70	64000,00
957,13	64000,00
957,56	64000,00
957,99	64000,00
958,43	64000,00
958,86	64000,00
959,29	64000,00
959,72	64000,00
960,15	64000,00
960,58	64000,00
961,02	64000,00
961,45	64000,00
961,88	64000,00
962,31	64000,00
962,74	64000,00
963,17	64000,00
963,61	64000,00
964,04	64000,00
964,47	64000,00
964,90	64000,00
965,33	64000,00
965,76	64000,00
966,19	64000,00
966,62	64000,00
967,06	64000,00
967,49	64000,00
967,92	64000,00
968,35	64000,00
968,78	64000,00
969,21	64000,00
969,64	64000,00
970,07	64000,00
970,50	64000,00
970,93	64000,00
971,37	64000,00
971,80	64000,00
972,23	64000,00
972,66	64000,00
973,09	64000,00
973,52	64000,00
973,95	64000,00
974,38	64000,00
974,81	64000,00
975,24	64000,00
975,67	64000,00
976,10	64000,00
976,53	64000,00
976,96	64000,00
977,39	64000,00
977,82	64000,00
978,26	64000,00
978,69	64000,00
979,12	64000,00
979,55	64000,00
979,98	64000,00
980,41	64000,00
980,84	64000,00
981,27	64000,00
981,70	64000,00
982,13	64000,00
982,56	64000,00
982,99	64000,00
983,42	64000,00
983,85	64000,00
984,28	64000,00
984,71	64000,00
985,14	64000,00
985,57	64000,00
986,00	64000,00
986,43	64000,00
986,86	64000,00
987,29	64000,00
987,72	64000,00
988,15	64000,00
988,57	64000,00
989,00	64000,00
989,43	64000,00
989,86	64000,00
990,29	64000,00
990,72	64000,00
991,15	64000,00
991,58	64000,00
992,01	64000,00
992,44	64000,00
992,87	64000,00
993,30	64000,00
993,73	64000,00
994,16	64000,00
994,59	64000,00
995,02	64000,00
995,44	64000,00
995,87	64000,00
996,30	64000,00
996,73	64000,00
997,16	64000,00
997,59	64000,00
998,02	64000,00
998,45	64000,00
998,88	64000,00
999,31	64000,00
999,73	64000,00
1000,16	64000,00
1000,59	64000,00
1001,02	64000,00
1001,45	64000,00
1001,88	64000,00
1002,31	64000,00
1002,74	64000,00
1003,16	64000,00
1003,59	64000,00
1004,02	64000,00
1004,45	64000,00
1004,88	64000,00
1005,31	64000,00
1005,73	64000,00
1006,16	64000,00
1006,59	64000,00
1007,02	64000,00
1007,45	64000,00
1007,88	64000,00
1008,30	64000,00
1008,73	64000,00
1009,16	64000,00
1009,59	64000,00
1010,02	64000,00
1010,44	64000,00
1010,87	64000,00
1011,30	64000,00
1011,73	64000,00
1012,16	64000,00
1012,58	64000,00
1013,01	64000,00
1013,44	64000,00
1013,87	64000,00
1014,30	64000,00
1014,72	64000,00
1015,15	64000,00
1015,58	64000,00
1016,01	64000,00
1016,43	64000,00
1016,86	64000,00
1017,29	64000,00
1017,72	64000,00
1018,14	64000,00
1018,57	64000,00
1019,00	64000,00
1019,43	64000,00
1019,85	64000,00
1020,28	64000,00
1020,71	64000,00
1021,14	64000,00
1021,56	64000,00
1021,99	64000,00
1022,42	64000,00
1022,84	64000,00
1023,27	64000,00
1023,70	64000,00
1024,13	64000,00
1024,55	64000,00
1024,98	64000,00
1025,41	64000,00
1025,83	64000,00
1026,26	64000,00
1026,69	64000,00
1027,11	64000,00
1027,54	64000,00
1027,97	64000,00
1028,39	64000,00
1028,82	64000,00
1029,25	64000,00
1029,67	64000,00
1030,10	64000,00
1030,53	64000,00
1030,95	64000,00
1031,38	64000,00
1031,81	64000,00
1032,23	64000,00
1032,66	64000,00
1033,09	64000,00
1033,51	64000,00
1033,94	64000,00
1034,37	64000,00
1034,79	64000,00
1035,22	64000,00
1035,64	64000,00
1036,07	64000,00
1036,50	64000,00
1036,92	64000,00
1037,35	64000,00
1037,77	64000,00
1038,20	64000,00
1038,63	64000,00
1039,05	64000,00
1039,48	64000,00
1039,90	64000,00
1040,33	64000,00
1040,76	64000,00
1041,18	64000,00
1041,61	64000,00
1042,03	64000,00
1042,46	64000,00
1042,88	64000,00
1043,31	64000,00
1043,74	64000,00
1044,16	64000,00
1044,59	64000,00
1045,01	64000,00
1045,44	64000,00
1045,86	64000,00
1046,29	64000,00
1046,71	64000,00
1047,14	64000,00
1047,56	64000,00
1047,99	64000,00
1048,42	64000,00
1048,84	64000,00
1049,27	64000,00
1049,69	64000,00
1050,12	64000,00
1050,54	64000,00
1050,97	64000,00
1051,39	64000,00
1051,82	64000,00
1052,24	64000,00
1052,67	64000,00
1053,09	64000,00
1053,52	64000,00
1053,94	64000,00
1054,37	64000,00
1054,79	64000,00
1055,22	64000,00
1055,64	64000,00
1056,06	64000,00
1056,49	64000,00
1056,91	64000,00
1057,34	64000,00
1057,76	64000,00
1058,19	64000,00
1058,61	64000,00
1059,04	64000,00
1059,46	64000,00
1059,89	64000,00
1060,31	64000,00
1060,73	64000,00
1061,16	64000,00
1061,58	64000,00
1062,01	64000,00
1062,43	64000,00
1062,86	64000,00
1063,28	64000,00
1063,70	64000,00
1064,13	64000,00
1064,55	64000,00
1064,98	64000,00
1065,40	64000,00
1065,82	64000,00
1066,25	64000,00
1066,67	64000,00
1067,10	64000,00
1067,52	64000,00
1067,94	64000,00
1068,37	64000,00
1068,79	64000,00
1069,21	64000,00
1069,64	64000,00
1070,06	64000,00
1070,48	64000,00
1070,91	64000,00
1071,33	64000,00
1071,76	64000,00
1072,18	64000,00
1072,60	64000,00
1073,03	64000,00
1073,45	64000,00
1073,87	64000,00
1074,30	64000,00
1074,72	64000,00
1075,14	64000,00
1075,57	64000,00
1075,99	64000,00
1076,41	64000,00
1076,84	64000,00
1077,26	64000,00
1077,68	64000,00
1078,10	64000,00
1078,53	64000,00
1078,95	64000,00
1079,37	64000,00
1079,80	64000,00
1080,22	64000,00
1080,64	63978,00
1081,06	63347,10
1081,49	62376,00
1081,91	61525,60
1082,33	61191,30
1082,76	60243,20
1083,18	59645,40
1083,60	59107,00
1084,02	58620,00
1084,45	58646,50
1084,87	57764,30
1085,29	57288,40
1085,71	57759,90
1086,14	56503,10
1086,56	56386,50
1086,98	56306,60
1087,40	55431,50
1087,83	56148,20
1088,25	64000,00
1088,67	55867,00
1089,09	54669,40
1089,51	54318,00
1089,94	53845,90
1090,36	54054,90
1090,78	52822,20
1091,20	51803,50
1091,62	51130,50
1092,05	50460,70
1092,47	49406,90
1092,89	49092,80
1093,31	48245,80
1093,73	47726,70
1094,16	46938,50
1094,58	46489,70
1095,00	45903,60
1095,42	45527,90
1095,84	44894,00
1096,26	44785,70
1096,69	44620,00
1097,11	43617,90
1097,53	43789,90
1097,95	43214,70
1098,37	43580,70
1098,79	43292,70
1099,22	42857,50
1099,64	42386,50
1100,06	42002,90
1100,48	41282,30
1100,90	40849,30
1101,32	40144,30
1101,74	39565,20
1102,16	38277,50
1102,59	37746,20
1103,01	37339,30
1103,43	36867,80
1103,85	36562,00
1104,27	40734,70
1104,69	36608,00
1105,11	34667,70
1105,53	35457,80
1105,95	35205,00
1106,38	34602,90
1106,80	34603,90
1107,22	33582,60
1107,64	33373,70
1108,06	33926,80
1108,48	32295,90
1108,90	32481,40
1109,32	31735,20
1109,74	31163,40
1110,16	29689,60
1110,58	29857,70
1111,00	29091,60
1111,42	29217,30
1111,84	28685,00
1112,26	28579,50
1112,68	28129,60
1113,11	28266,00
1113,53	27235,50
1113,95	26317,50
1114,37	25919,30
1114,79	25367,30
1115,21	24360,20
1115,63	24412,10
1116,05	23744,10
1116,47	22380,40
1116,89	21079,00
1117,31	19352,50
1117,73	18628,60
1118,15	1835,20
1118,57	2240,20
1118,99	2199,60
1119,41	2198,70
>>>>>End Processed Spectral Data<<<<<
