SpectraSuite Data File
++++++++++++++++++++++++++++++++++++
Date: Tue Oct 14 10:21:30 EEST 2014
User: OO Maya
Dark Spectrum Present: No
Reference Spectrum Present: No
Number of Sampled Component Spectra: 1
Spectrometers: MAYP11278
Integration Time (usec): 5000000 (MAYP11278)
Spectra Averaged: 10 (MAYP11278)
Boxcar Smoothing: 0 (MAYP11278)
Correct for Electrical Dark: No (MAYP11278)
Strobe/Lamp Enabled: No (MAYP11278)
Correct for Detector Non-linearity: No (MAYP11278)
Correct for Stray Light: No (MAYP11278)
Number of Pixels in Processed Spectrum: 2068
>>>>>Begin Processed Spectral Data<<<<<
188,14	2316,20
188,62	2228,60
189,09	2199,00
189,57	2200,10
190,05	11084,90
190,53	12108,70
191,01	12585,30
191,49	12899,80
191,97	13539,00
192,44	12970,70
192,92	12793,20
193,40	12474,80
193,88	12987,40
194,36	12894,00
194,84	13181,80
195,31	12832,60
195,79	13444,20
196,27	12831,20
196,75	12957,80
197,23	14416,80
197,70	12965,00
198,18	12594,10
198,66	12946,00
199,14	12646,50
199,62	13266,50
200,09	13487,00
200,57	12876,90
201,05	12950,40
201,53	13445,10
202,01	13376,70
202,48	13366,20
202,96	12518,40
203,44	13206,20
203,92	12624,40
204,40	13496,90
204,87	13715,00
205,35	12791,10
205,83	12759,80
206,31	13781,60
206,78	12871,30
207,26	13274,30
207,74	14444,70
208,22	13147,40
208,69	13452,40
209,17	12937,20
209,65	13567,20
210,13	13397,20
210,60	13096,60
211,08	13051,80
211,56	13447,80
212,04	13146,20
212,51	12726,40
212,99	14099,70
213,47	13416,80
213,95	12881,90
214,42	13955,40
214,90	13308,10
215,38	13890,00
215,85	13308,00
216,33	13464,10
216,81	13418,10
217,29	13505,70
217,76	12778,60
218,24	13177,30
218,72	13834,80
219,19	12494,80
219,67	12763,20
220,15	12815,20
220,62	13121,20
221,10	14453,30
221,58	12855,10
222,05	13663,30
222,53	12931,10
223,01	13655,00
223,49	13008,00
223,96	13619,90
224,44	13149,30
224,92	12933,90
225,39	12728,20
225,87	13091,40
226,35	12870,00
226,82	13197,50
227,30	13774,10
227,77	13145,20
228,25	13551,00
228,73	13614,10
229,20	13527,40
229,68	13114,10
230,16	13278,30
230,63	13017,60
231,11	13615,00
231,59	13665,20
232,06	13294,50
232,54	13367,20
233,02	12815,50
233,49	13323,10
233,97	13407,70
234,44	15127,50
234,92	13506,60
235,40	13006,60
235,87	12861,70
236,35	12704,80
236,82	13867,80
237,30	14418,90
237,78	13026,40
238,25	13332,70
238,73	13381,50
239,20	13320,70
239,68	13222,00
240,16	12705,40
240,63	13651,20
241,11	14010,80
241,58	13401,40
242,06	13224,40
242,53	13781,80
243,01	13940,80
243,49	12761,40
243,96	12916,60
244,44	13746,50
244,91	14033,30
245,39	13184,90
245,86	13935,60
246,34	37555,20
246,82	12556,40
247,29	13483,30
247,77	13356,60
248,24	13518,30
248,72	13546,90
249,19	12604,90
249,67	13376,40
250,14	13762,30
250,62	13497,50
251,09	14096,80
251,57	13420,40
252,04	14462,80
252,52	14148,80
253,00	13147,20
253,47	14072,30
253,95	13479,00
254,42	13370,30
254,90	13600,10
255,37	13578,10
255,85	13881,00
256,32	13188,50
256,80	13536,40
257,27	13703,00
257,75	13906,80
258,22	15124,20
258,70	13479,50
259,17	13199,90
259,65	13596,50
260,12	13762,20
260,59	14321,80
261,07	13374,60
261,54	13267,00
262,02	14107,90
262,49	13182,30
262,97	13656,10
263,44	13458,00
263,92	12939,90
264,39	13913,00
264,87	14093,70
265,34	13288,10
265,82	13572,70
266,29	13688,90
266,76	13920,00
267,24	13423,50
267,71	13560,00
268,19	13758,40
268,66	13863,60
269,14	12837,50
269,61	13169,50
270,09	13208,20
270,56	13842,70
271,03	14100,00
271,51	13346,90
271,98	13561,20
272,46	12960,40
272,93	13015,30
273,40	12705,40
273,88	13600,30
274,35	15497,10
274,83	13892,30
275,30	13998,80
275,78	13360,70
276,25	13573,00
276,72	13909,50
277,20	13980,50
277,67	13032,90
278,14	13444,70
278,62	12915,30
279,09	15509,60
279,57	13174,70
280,04	13106,80
280,51	15680,80
280,99	14410,30
281,46	15870,40
281,93	13828,20
282,41	14647,50
282,88	13821,60
283,36	13872,20
283,83	14054,80
284,30	13386,30
284,78	13326,90
285,25	14176,10
285,72	13773,70
286,20	13952,90
286,67	13995,20
287,14	13154,60
287,62	14076,10
288,09	14649,20
288,56	13799,90
289,04	14342,30
289,51	13068,20
289,98	14788,20
290,46	13557,00
290,93	14107,90
291,40	13609,50
291,88	14118,90
292,35	15192,50
292,82	13640,20
293,29	14522,90
293,77	13677,40
294,24	14306,70
294,71	14311,30
295,19	13839,90
295,66	14117,00
296,13	14325,10
296,61	15145,90
297,08	15052,40
297,55	14550,60
298,02	14431,80
298,50	14422,50
298,97	13932,00
299,44	15061,60
299,91	14073,00
300,39	14443,80
300,86	13957,70
301,33	14762,90
301,81	14765,30
302,28	14733,80
302,75	13849,00
303,22	14784,00
303,70	14843,70
304,17	14189,20
304,64	14266,50
305,11	14078,10
305,58	14610,70
306,06	14707,30
306,53	14622,50
307,00	14874,80
307,47	14240,80
307,95	14279,30
308,42	14656,10
308,89	14315,20
309,36	15097,50
309,83	15162,50
310,31	14886,20
310,78	14814,50
311,25	15044,90
311,72	14531,40
312,20	15441,00
312,67	14841,80
313,14	15831,30
313,61	14546,70
314,08	14714,90
314,56	14930,30
315,03	14642,70
315,50	14601,50
315,97	15421,10
316,44	15269,90
316,91	15157,40
317,39	15396,70
317,86	15210,40
318,33	16701,50
318,80	15179,50
319,27	15180,40
319,74	14667,20
320,22	15572,90
320,69	16421,40
321,16	15930,90
321,63	15349,50
322,10	14694,80
322,57	14986,60
323,04	16434,30
323,52	15257,30
323,99	16864,80
324,46	14740,40
324,93	15603,90
325,40	15490,00
325,87	15546,70
326,34	15663,50
326,82	15738,10
327,29	16263,20
327,76	16371,20
328,23	16377,50
328,70	16261,20
329,17	16045,60
329,64	15935,10
330,11	15930,80
330,58	15729,20
331,05	16369,00
331,53	16137,90
332,00	16787,20
332,47	15663,90
332,94	17325,00
333,41	16928,90
333,88	17075,70
334,35	17538,00
334,82	16997,60
335,29	17301,60
335,76	19148,40
336,23	16771,70
336,70	17262,60
337,18	16982,00
337,65	17256,30
338,12	16922,70
338,59	16925,40
339,06	18005,80
339,53	17497,40
340,00	16587,70
340,47	16703,10
340,94	16784,20
341,41	17359,60
341,88	17836,90
342,35	17059,50
342,82	17453,90
343,29	17728,10
343,76	17471,30
344,23	17172,00
344,70	17338,50
345,17	16966,70
345,64	17378,10
346,11	17656,20
346,58	17200,60
347,05	17106,00
347,52	18291,80
347,99	17241,30
348,46	18139,00
348,93	17703,10
349,40	17026,40
349,87	17787,70
350,34	18122,00
350,81	17807,30
351,28	17378,70
351,75	18000,50
352,22	18871,80
352,69	18078,60
353,16	17809,10
353,63	18030,20
354,10	18389,70
354,57	18209,40
355,04	18484,70
355,51	18321,30
355,98	19095,60
356,45	17979,10
356,92	19267,00
357,39	18052,60
357,86	19697,60
358,33	18914,40
358,80	18051,30
359,27	18213,50
359,74	18435,10
360,21	18549,10
360,68	19398,20
361,14	19704,40
361,61	18853,00
362,08	19012,20
362,55	19189,50
363,02	19055,60
363,49	19141,50
363,96	20585,30
364,43	19636,20
364,90	19103,20
365,37	19803,60
365,84	19409,20
366,31	19197,60
366,77	19969,50
367,24	19970,00
367,71	28380,60
368,18	19300,30
368,65	19777,00
369,12	20721,20
369,59	19853,30
370,06	20942,40
370,53	20686,20
370,99	20426,70
371,46	25901,10
371,93	20962,00
372,40	20650,20
372,87	20367,70
373,34	20842,90
373,81	21367,70
374,27	20825,60
374,74	21095,00
375,21	21850,30
375,68	21090,50
376,15	22753,10
376,62	21872,50
377,09	21672,80
377,55	21822,40
378,02	22680,70
378,49	22753,30
378,96	22650,60
379,43	22863,00
379,90	22979,50
380,36	23467,00
380,83	24200,50
381,30	23546,00
381,77	24518,20
382,24	24571,90
382,71	23341,10
383,17	24339,00
383,64	24172,50
384,11	25042,10
384,58	24683,40
385,05	27688,50
385,51	25064,10
385,98	25008,40
386,45	25218,50
386,92	26491,30
387,39	25357,30
387,85	25342,00
388,32	26629,90
388,79	26440,10
389,26	27051,10
389,72	26319,60
390,19	27107,20
390,66	27156,90
391,13	27509,60
391,59	27617,50
392,06	27826,70
392,53	28080,30
393,00	28053,20
393,46	28191,90
393,93	29839,00
394,40	28757,00
394,87	29588,10
395,33	28840,70
395,80	29816,30
396,27	32240,20
396,74	29308,00
397,20	30354,10
397,67	30725,10
398,14	30181,10
398,61	30778,10
399,07	30789,30
399,54	30830,40
400,01	32010,40
400,47	31294,50
400,94	31874,20
401,41	31949,60
401,88	32589,10
402,34	32821,00
402,81	32988,10
403,28	32784,90
403,74	34205,00
404,21	33525,60
404,68	34563,30
405,14	35168,60
405,61	35077,80
406,08	34267,30
406,54	35273,20
407,01	35493,20
407,48	36570,80
407,95	35662,00
408,41	36080,30
408,88	36532,10
409,35	36046,60
409,81	37304,80
410,28	36652,70
410,74	37906,80
411,21	37270,10
411,68	38468,60
412,14	37931,00
412,61	37642,30
413,08	38908,00
413,54	38654,30
414,01	39413,80
414,48	39738,00
414,94	40576,90
415,41	39931,20
415,88	41125,30
416,34	40675,40
416,81	40929,80
417,27	42040,30
417,74	41578,80
418,21	41544,60
418,67	42003,90
419,14	42224,90
419,60	42963,70
420,07	42444,60
420,54	43505,90
421,00	42878,20
421,47	43691,70
421,93	43810,60
422,40	44712,10
422,87	44480,60
423,33	44914,30
423,80	45514,20
424,26	46030,70
424,73	45880,80
425,19	46634,10
425,66	46618,10
426,13	47647,00
426,59	47034,30
427,06	48160,60
427,52	48210,10
427,99	48683,60
428,45	48085,30
428,92	49301,20
429,38	49386,50
429,85	49476,00
430,32	49979,60
430,78	51793,80
431,25	50060,30
431,71	50857,00
432,18	52060,40
432,64	52022,60
433,11	51839,70
433,57	52064,90
434,04	52681,80
434,50	52986,90
434,97	53850,80
435,43	53399,10
435,90	54547,60
436,36	54645,10
436,83	54391,30
437,29	55557,40
437,76	55758,00
438,22	56089,70
438,69	56064,50
439,15	56532,10
439,62	59075,30
440,08	57611,40
440,55	58202,80
441,01	58774,30
441,48	58152,20
441,94	58721,60
442,41	60337,50
442,87	59211,00
443,34	60060,50
443,80	60434,30
444,27	60285,40
444,73	61893,90
445,20	61776,70
445,66	61906,20
446,12	62142,60
446,59	62782,00
447,05	62954,80
447,52	63541,30
447,98	63586,50
448,45	63827,00
448,91	64000,00
449,38	64000,00
449,84	64000,00
450,30	64000,00
450,77	64000,00
451,23	64000,00
451,70	64000,00
452,16	64000,00
452,63	64000,00
453,09	64000,00
453,55	64000,00
454,02	64000,00
454,48	64000,00
454,95	64000,00
455,41	64000,00
455,87	64000,00
456,34	64000,00
456,80	64000,00
457,27	64000,00
457,73	64000,00
458,19	64000,00
458,66	64000,00
459,12	64000,00
459,58	64000,00
460,05	64000,00
460,51	64000,00
460,98	64000,00
461,44	64000,00
461,90	64000,00
462,37	64000,00
462,83	64000,00
463,29	64000,00
463,76	64000,00
464,22	64000,00
464,68	64000,00
465,15	64000,00
465,61	64000,00
466,07	64000,00
466,54	64000,00
467,00	64000,00
467,46	64000,00
467,93	64000,00
468,39	64000,00
468,85	64000,00
469,32	64000,00
469,78	64000,00
470,24	64000,00
470,71	64000,00
471,17	64000,00
471,63	64000,00
472,10	64000,00
472,56	64000,00
473,02	64000,00
473,48	64000,00
473,95	64000,00
474,41	64000,00
474,87	64000,00
475,34	64000,00
475,80	64000,00
476,26	64000,00
476,72	64000,00
477,19	64000,00
477,65	64000,00
478,11	64000,00
478,58	64000,00
479,04	64000,00
479,50	64000,00
479,96	64000,00
480,43	64000,00
480,89	64000,00
481,35	64000,00
481,81	64000,00
482,28	64000,00
482,74	64000,00
483,20	64000,00
483,66	64000,00
484,13	64000,00
484,59	64000,00
485,05	64000,00
485,51	64000,00
485,97	64000,00
486,44	64000,00
486,90	64000,00
487,36	64000,00
487,82	64000,00
488,29	64000,00
488,75	64000,00
489,21	64000,00
489,67	64000,00
490,13	64000,00
490,60	64000,00
491,06	64000,00
491,52	64000,00
491,98	64000,00
492,44	64000,00
492,90	64000,00
493,37	64000,00
493,83	64000,00
494,29	64000,00
494,75	64000,00
495,21	64000,00
495,67	64000,00
496,14	64000,00
496,60	64000,00
497,06	64000,00
497,52	64000,00
497,98	64000,00
498,44	64000,00
498,91	64000,00
499,37	64000,00
499,83	64000,00
500,29	64000,00
500,75	64000,00
501,21	64000,00
501,67	64000,00
502,14	64000,00
502,60	64000,00
503,06	64000,00
503,52	64000,00
503,98	64000,00
504,44	64000,00
504,90	64000,00
505,36	64000,00
505,82	64000,00
506,29	64000,00
506,75	64000,00
507,21	64000,00
507,67	64000,00
508,13	64000,00
508,59	64000,00
509,05	64000,00
509,51	64000,00
509,97	64000,00
510,43	64000,00
510,89	64000,00
511,35	64000,00
511,82	64000,00
512,28	64000,00
512,74	64000,00
513,20	64000,00
513,66	64000,00
514,12	64000,00
514,58	64000,00
515,04	64000,00
515,50	64000,00
515,96	64000,00
516,42	64000,00
516,88	64000,00
517,34	64000,00
517,80	64000,00
518,26	64000,00
518,72	64000,00
519,18	64000,00
519,64	64000,00
520,10	64000,00
520,56	64000,00
521,02	64000,00
521,48	64000,00
521,94	64000,00
522,40	64000,00
522,86	64000,00
523,32	64000,00
523,78	64000,00
524,24	64000,00
524,70	64000,00
525,16	64000,00
525,62	64000,00
526,08	64000,00
526,54	64000,00
527,00	64000,00
527,46	64000,00
527,92	64000,00
528,38	64000,00
528,84	64000,00
529,30	64000,00
529,76	64000,00
530,22	64000,00
530,68	64000,00
531,14	64000,00
531,60	64000,00
532,06	64000,00
532,52	64000,00
532,98	64000,00
533,44	64000,00
533,90	64000,00
534,36	64000,00
534,82	64000,00
535,28	64000,00
535,73	64000,00
536,19	64000,00
536,65	64000,00
537,11	64000,00
537,57	64000,00
538,03	64000,00
538,49	64000,00
538,95	64000,00
539,41	64000,00
539,87	64000,00
540,33	64000,00
540,79	64000,00
541,24	64000,00
541,70	64000,00
542,16	64000,00
542,62	64000,00
543,08	64000,00
543,54	64000,00
544,00	64000,00
544,46	64000,00
544,91	64000,00
545,37	64000,00
545,83	64000,00
546,29	64000,00
546,75	64000,00
547,21	64000,00
547,67	64000,00
548,13	64000,00
548,58	64000,00
549,04	64000,00
549,50	64000,00
549,96	64000,00
550,42	64000,00
550,88	64000,00
551,33	64000,00
551,79	64000,00
552,25	64000,00
552,71	64000,00
553,17	64000,00
553,63	64000,00
554,08	64000,00
554,54	64000,00
555,00	64000,00
555,46	64000,00
555,92	64000,00
556,37	64000,00
556,83	64000,00
557,29	64000,00
557,75	64000,00
558,21	64000,00
558,66	64000,00
559,12	64000,00
559,58	64000,00
560,04	64000,00
560,50	64000,00
560,95	64000,00
561,41	64000,00
561,87	64000,00
562,33	64000,00
562,78	64000,00
563,24	64000,00
563,70	64000,00
564,16	64000,00
564,61	64000,00
565,07	64000,00
565,53	64000,00
565,99	64000,00
566,44	64000,00
566,90	64000,00
567,36	64000,00
567,82	64000,00
568,27	64000,00
568,73	64000,00
569,19	64000,00
569,65	64000,00
570,10	64000,00
570,56	64000,00
571,02	64000,00
571,47	64000,00
571,93	64000,00
572,39	64000,00
572,85	64000,00
573,30	64000,00
573,76	64000,00
574,22	64000,00
574,67	64000,00
575,13	64000,00
575,59	64000,00
576,04	64000,00
576,50	64000,00
576,96	64000,00
577,42	64000,00
577,87	64000,00
578,33	64000,00
578,79	64000,00
579,24	64000,00
579,70	64000,00
580,16	64000,00
580,61	64000,00
581,07	64000,00
581,53	64000,00
581,98	64000,00
582,44	64000,00
582,89	64000,00
583,35	64000,00
583,81	64000,00
584,26	64000,00
584,72	64000,00
585,18	64000,00
585,63	64000,00
586,09	64000,00
586,55	64000,00
587,00	64000,00
587,46	64000,00
587,91	64000,00
588,37	64000,00
588,83	64000,00
589,28	64000,00
589,74	64000,00
590,19	64000,00
590,65	64000,00
591,11	64000,00
591,56	64000,00
592,02	64000,00
592,47	64000,00
592,93	64000,00
593,39	64000,00
593,84	64000,00
594,30	64000,00
594,75	64000,00
595,21	64000,00
595,66	64000,00
596,12	64000,00
596,58	64000,00
597,03	64000,00
597,49	64000,00
597,94	64000,00
598,40	64000,00
598,85	64000,00
599,31	64000,00
599,76	64000,00
600,22	64000,00
600,67	64000,00
601,13	64000,00
601,59	64000,00
602,04	64000,00
602,50	64000,00
602,95	64000,00
603,41	64000,00
603,86	64000,00
604,32	64000,00
604,77	64000,00
605,23	64000,00
605,68	64000,00
606,14	64000,00
606,59	64000,00
607,05	64000,00
607,50	64000,00
607,96	64000,00
608,41	64000,00
608,87	64000,00
609,32	64000,00
609,78	64000,00
610,23	64000,00
610,69	64000,00
611,14	64000,00
611,60	64000,00
612,05	64000,00
612,50	64000,00
612,96	64000,00
613,41	64000,00
613,87	64000,00
614,32	64000,00
614,78	64000,00
615,23	64000,00
615,69	64000,00
616,14	64000,00
616,59	64000,00
617,05	64000,00
617,50	64000,00
617,96	64000,00
618,41	64000,00
618,87	64000,00
619,32	64000,00
619,77	64000,00
620,23	64000,00
620,68	64000,00
621,14	64000,00
621,59	64000,00
622,05	64000,00
622,50	64000,00
622,95	64000,00
623,41	64000,00
623,86	64000,00
624,32	64000,00
624,77	64000,00
625,22	64000,00
625,68	64000,00
626,13	64000,00
626,58	64000,00
627,04	64000,00
627,49	64000,00
627,95	64000,00
628,40	64000,00
628,85	64000,00
629,31	64000,00
629,76	64000,00
630,21	64000,00
630,67	64000,00
631,12	64000,00
631,57	64000,00
632,03	64000,00
632,48	64000,00
632,93	64000,00
633,39	64000,00
633,84	64000,00
634,29	64000,00
634,75	64000,00
635,20	64000,00
635,65	64000,00
636,11	64000,00
636,56	64000,00
637,01	64000,00
637,47	64000,00
637,92	64000,00
638,37	64000,00
638,83	64000,00
639,28	64000,00
639,73	64000,00
640,18	64000,00
640,64	64000,00
641,09	64000,00
641,54	64000,00
642,00	64000,00
642,45	64000,00
642,90	64000,00
643,35	64000,00
643,81	64000,00
644,26	64000,00
644,71	64000,00
645,17	64000,00
645,62	64000,00
646,07	64000,00
646,52	64000,00
646,98	64000,00
647,43	64000,00
647,88	64000,00
648,33	64000,00
648,79	64000,00
649,24	64000,00
649,69	64000,00
650,14	64000,00
650,59	64000,00
651,05	64000,00
651,50	64000,00
651,95	64000,00
652,40	64000,00
652,86	64000,00
653,31	64000,00
653,76	64000,00
654,21	64000,00
654,66	64000,00
655,12	64000,00
655,57	64000,00
656,02	64000,00
656,47	64000,00
656,92	64000,00
657,38	64000,00
657,83	64000,00
658,28	64000,00
658,73	64000,00
659,18	64000,00
659,63	64000,00
660,09	64000,00
660,54	64000,00
660,99	64000,00
661,44	64000,00
661,89	64000,00
662,34	64000,00
662,80	64000,00
663,25	64000,00
663,70	64000,00
664,15	64000,00
664,60	64000,00
665,05	64000,00
665,50	64000,00
665,96	64000,00
666,41	64000,00
666,86	64000,00
667,31	64000,00
667,76	64000,00
668,21	64000,00
668,66	64000,00
669,11	64000,00
669,56	64000,00
670,02	64000,00
670,47	64000,00
670,92	64000,00
671,37	64000,00
671,82	64000,00
672,27	64000,00
672,72	64000,00
673,17	64000,00
673,62	64000,00
674,07	64000,00
674,52	64000,00
674,98	64000,00
675,43	64000,00
675,88	64000,00
676,33	64000,00
676,78	64000,00
677,23	64000,00
677,68	64000,00
678,13	64000,00
678,58	64000,00
679,03	64000,00
679,48	64000,00
679,93	64000,00
680,38	64000,00
680,83	64000,00
681,28	64000,00
681,73	64000,00
682,18	64000,00
682,63	64000,00
683,08	64000,00
683,53	64000,00
683,98	64000,00
684,43	64000,00
684,89	64000,00
685,34	64000,00
685,79	64000,00
686,24	64000,00
686,69	64000,00
687,14	64000,00
687,59	64000,00
688,04	64000,00
688,49	64000,00
688,93	64000,00
689,38	64000,00
689,83	64000,00
690,28	64000,00
690,73	64000,00
691,18	64000,00
691,63	64000,00
692,08	64000,00
692,53	64000,00
692,98	64000,00
693,43	64000,00
693,88	64000,00
694,33	64000,00
694,78	64000,00
695,23	64000,00
695,68	64000,00
696,13	64000,00
696,58	64000,00
697,03	64000,00
697,48	64000,00
697,93	64000,00
698,38	64000,00
698,82	64000,00
699,27	64000,00
699,72	64000,00
700,17	64000,00
700,62	64000,00
701,07	64000,00
701,52	64000,00
701,97	64000,00
702,42	64000,00
702,87	64000,00
703,32	64000,00
703,76	64000,00
704,21	64000,00
704,66	64000,00
705,11	64000,00
705,56	64000,00
706,01	64000,00
706,46	64000,00
706,91	64000,00
707,36	64000,00
707,80	64000,00
708,25	64000,00
708,70	64000,00
709,15	64000,00
709,60	64000,00
710,05	64000,00
710,50	64000,00
710,94	64000,00
711,39	64000,00
711,84	64000,00
712,29	64000,00
712,74	64000,00
713,19	64000,00
713,63	64000,00
714,08	64000,00
714,53	64000,00
714,98	64000,00
715,43	64000,00
715,87	64000,00
716,32	64000,00
716,77	64000,00
717,22	64000,00
717,67	64000,00
718,12	64000,00
718,56	64000,00
719,01	64000,00
719,46	64000,00
719,91	64000,00
720,35	64000,00
720,80	64000,00
721,25	64000,00
721,70	64000,00
722,15	64000,00
722,59	64000,00
723,04	64000,00
723,49	64000,00
723,94	64000,00
724,38	64000,00
724,83	64000,00
725,28	64000,00
725,73	64000,00
726,17	64000,00
726,62	64000,00
727,07	64000,00
727,52	64000,00
727,96	64000,00
728,41	64000,00
728,86	64000,00
729,31	64000,00
729,75	64000,00
730,20	64000,00
730,65	64000,00
731,09	64000,00
731,54	64000,00
731,99	64000,00
732,44	64000,00
732,88	64000,00
733,33	64000,00
733,78	64000,00
734,22	64000,00
734,67	64000,00
735,12	64000,00
735,57	64000,00
736,01	64000,00
736,46	64000,00
736,91	64000,00
737,35	64000,00
737,80	64000,00
738,25	64000,00
738,69	64000,00
739,14	64000,00
739,59	64000,00
740,03	64000,00
740,48	64000,00
740,93	64000,00
741,37	64000,00
741,82	64000,00
742,26	64000,00
742,71	64000,00
743,16	64000,00
743,60	64000,00
744,05	64000,00
744,50	64000,00
744,94	64000,00
745,39	64000,00
745,84	64000,00
746,28	64000,00
746,73	64000,00
747,17	64000,00
747,62	64000,00
748,07	64000,00
748,51	64000,00
748,96	64000,00
749,40	64000,00
749,85	64000,00
750,30	64000,00
750,74	64000,00
751,19	64000,00
751,63	64000,00
752,08	64000,00
752,53	64000,00
752,97	64000,00
753,42	64000,00
753,86	64000,00
754,31	64000,00
754,75	64000,00
755,20	64000,00
755,64	64000,00
756,09	64000,00
756,54	64000,00
756,98	64000,00
757,43	64000,00
757,87	64000,00
758,32	64000,00
758,76	64000,00
759,21	64000,00
759,65	64000,00
760,10	64000,00
760,54	64000,00
760,99	64000,00
761,43	64000,00
761,88	64000,00
762,33	64000,00
762,77	64000,00
763,22	64000,00
763,66	64000,00
764,11	64000,00
764,55	64000,00
765,00	64000,00
765,44	64000,00
765,89	64000,00
766,33	64000,00
766,77	64000,00
767,22	64000,00
767,66	64000,00
768,11	64000,00
768,55	64000,00
769,00	64000,00
769,44	64000,00
769,89	64000,00
770,33	64000,00
770,78	64000,00
771,22	64000,00
771,67	64000,00
772,11	64000,00
772,56	64000,00
773,00	64000,00
773,44	64000,00
773,89	64000,00
774,33	64000,00
774,78	64000,00
775,22	64000,00
775,67	64000,00
776,11	64000,00
776,55	64000,00
777,00	64000,00
777,44	64000,00
777,89	64000,00
778,33	64000,00
778,77	64000,00
779,22	64000,00
779,66	64000,00
780,11	64000,00
780,55	64000,00
780,99	64000,00
781,44	64000,00
781,88	64000,00
782,33	64000,00
782,77	64000,00
783,21	64000,00
783,66	64000,00
784,10	64000,00
784,55	64000,00
784,99	64000,00
785,43	64000,00
785,88	64000,00
786,32	64000,00
786,76	64000,00
787,21	64000,00
787,65	64000,00
788,09	64000,00
788,54	64000,00
788,98	64000,00
789,42	64000,00
789,87	64000,00
790,31	64000,00
790,75	64000,00
791,20	64000,00
791,64	64000,00
792,08	64000,00
792,53	64000,00
792,97	64000,00
793,41	64000,00
793,86	64000,00
794,30	64000,00
794,74	64000,00
795,18	64000,00
795,63	64000,00
796,07	64000,00
796,51	64000,00
796,96	64000,00
797,40	64000,00
797,84	64000,00
798,28	64000,00
798,73	64000,00
799,17	64000,00
799,61	64000,00
800,06	64000,00
800,50	64000,00
800,94	64000,00
801,38	64000,00
801,83	64000,00
802,27	64000,00
802,71	64000,00
803,15	64000,00
803,60	64000,00
804,04	64000,00
804,48	64000,00
804,92	64000,00
805,37	64000,00
805,81	64000,00
806,25	64000,00
806,69	64000,00
807,13	64000,00
807,58	64000,00
808,02	64000,00
808,46	64000,00
808,90	64000,00
809,34	64000,00
809,79	64000,00
810,23	64000,00
810,67	64000,00
811,11	64000,00
811,55	64000,00
812,00	64000,00
812,44	64000,00
812,88	64000,00
813,32	64000,00
813,76	64000,00
814,21	64000,00
814,65	64000,00
815,09	64000,00
815,53	64000,00
815,97	64000,00
816,41	64000,00
816,85	64000,00
817,30	64000,00
817,74	64000,00
818,18	64000,00
818,62	64000,00
819,06	64000,00
819,50	64000,00
819,94	64000,00
820,39	64000,00
820,83	64000,00
821,27	64000,00
821,71	64000,00
822,15	64000,00
822,59	64000,00
823,03	64000,00
823,47	64000,00
823,92	64000,00
824,36	64000,00
824,80	64000,00
825,24	64000,00
825,68	64000,00
826,12	64000,00
826,56	64000,00
827,00	64000,00
827,44	64000,00
827,88	64000,00
828,32	64000,00
828,77	64000,00
829,21	64000,00
829,65	64000,00
830,09	64000,00
830,53	64000,00
830,97	64000,00
831,41	64000,00
831,85	64000,00
832,29	64000,00
832,73	64000,00
833,17	64000,00
833,61	64000,00
834,05	64000,00
834,49	64000,00
834,93	64000,00
835,37	64000,00
835,81	64000,00
836,25	64000,00
836,69	64000,00
837,13	64000,00
837,57	64000,00
838,01	64000,00
838,45	64000,00
838,89	64000,00
839,33	64000,00
839,77	64000,00
840,21	64000,00
840,65	64000,00
841,09	64000,00
841,53	64000,00
841,97	64000,00
842,41	64000,00
842,85	64000,00
843,29	64000,00
843,73	64000,00
844,17	64000,00
844,61	64000,00
845,05	64000,00
845,49	64000,00
845,93	64000,00
846,37	64000,00
846,81	64000,00
847,25	64000,00
847,69	64000,00
848,13	64000,00
848,57	64000,00
849,01	64000,00
849,45	64000,00
849,89	64000,00
850,32	64000,00
850,76	64000,00
851,20	64000,00
851,64	64000,00
852,08	64000,00
852,52	64000,00
852,96	64000,00
853,40	64000,00
853,84	64000,00
854,28	64000,00
854,72	64000,00
855,16	64000,00
855,59	64000,00
856,03	64000,00
856,47	64000,00
856,91	64000,00
857,35	64000,00
857,79	64000,00
858,23	64000,00
858,67	64000,00
859,10	64000,00
859,54	64000,00
859,98	64000,00
860,42	64000,00
860,86	64000,00
861,30	64000,00
861,74	64000,00
862,17	64000,00
862,61	64000,00
863,05	64000,00
863,49	64000,00
863,93	64000,00
864,37	64000,00
864,80	64000,00
865,24	64000,00
865,68	64000,00
866,12	64000,00
866,56	64000,00
867,00	64000,00
867,43	64000,00
867,87	64000,00
868,31	64000,00
868,75	64000,00
869,19	64000,00
869,62	64000,00
870,06	64000,00
870,50	64000,00
870,94	64000,00
871,38	64000,00
871,81	64000,00
872,25	64000,00
872,69	64000,00
873,13	64000,00
873,56	64000,00
874,00	64000,00
874,44	64000,00
874,88	64000,00
875,31	64000,00
875,75	64000,00
876,19	64000,00
876,63	64000,00
877,06	64000,00
877,50	64000,00
877,94	64000,00
878,38	64000,00
878,81	64000,00
879,25	64000,00
879,69	64000,00
880,13	64000,00
880,56	64000,00
881,00	64000,00
881,44	64000,00
881,87	64000,00
882,31	64000,00
882,75	64000,00
883,19	64000,00
883,62	64000,00
884,06	64000,00
884,50	64000,00
884,93	64000,00
885,37	64000,00
885,81	64000,00
886,24	64000,00
886,68	64000,00
887,12	64000,00
887,55	64000,00
887,99	64000,00
888,43	64000,00
888,86	64000,00
889,30	64000,00
889,74	64000,00
890,17	64000,00
890,61	64000,00
891,05	64000,00
891,48	64000,00
891,92	64000,00
892,36	64000,00
892,79	64000,00
893,23	64000,00
893,67	64000,00
894,10	64000,00
894,54	64000,00
894,97	64000,00
895,41	64000,00
895,85	64000,00
896,28	64000,00
896,72	64000,00
897,16	64000,00
897,59	64000,00
898,03	64000,00
898,46	64000,00
898,90	64000,00
899,34	64000,00
899,77	64000,00
900,21	64000,00
900,64	64000,00
901,08	64000,00
901,51	64000,00
901,95	64000,00
902,39	64000,00
902,82	64000,00
903,26	64000,00
903,69	64000,00
904,13	64000,00
904,56	64000,00
905,00	64000,00
905,43	64000,00
905,87	64000,00
906,31	64000,00
906,74	64000,00
907,18	64000,00
907,61	64000,00
908,05	64000,00
908,48	64000,00
908,92	64000,00
909,35	64000,00
909,79	64000,00
910,22	64000,00
910,66	64000,00
911,09	64000,00
911,53	64000,00
911,96	64000,00
912,40	64000,00
912,83	64000,00
913,27	64000,00
913,70	64000,00
914,14	64000,00
914,57	64000,00
915,01	64000,00
915,44	64000,00
915,88	64000,00
916,31	64000,00
916,75	64000,00
917,18	64000,00
917,62	64000,00
918,05	64000,00
918,49	64000,00
918,92	64000,00
919,35	64000,00
919,79	64000,00
920,22	64000,00
920,66	64000,00
921,09	64000,00
921,53	64000,00
921,96	64000,00
922,40	64000,00
922,83	64000,00
923,26	64000,00
923,70	64000,00
924,13	64000,00
924,57	64000,00
925,00	64000,00
925,44	64000,00
925,87	64000,00
926,30	64000,00
926,74	64000,00
927,17	64000,00
927,61	64000,00
928,04	64000,00
928,47	64000,00
928,91	64000,00
929,34	64000,00
929,77	64000,00
930,21	64000,00
930,64	64000,00
931,08	64000,00
931,51	64000,00
931,94	64000,00
932,38	64000,00
932,81	64000,00
933,24	64000,00
933,68	64000,00
934,11	64000,00
934,54	64000,00
934,98	64000,00
935,41	64000,00
935,84	64000,00
936,28	64000,00
936,71	64000,00
937,14	64000,00
937,58	64000,00
938,01	64000,00
938,44	64000,00
938,88	64000,00
939,31	64000,00
939,74	64000,00
940,18	64000,00
940,61	64000,00
941,04	64000,00
941,48	64000,00
941,91	64000,00
942,34	64000,00
942,77	64000,00
943,21	64000,00
943,64	64000,00
944,07	64000,00
944,51	64000,00
944,94	64000,00
945,37	64000,00
945,80	64000,00
946,24	64000,00
946,67	64000,00
947,10	64000,00
947,53	64000,00
947,97	64000,00
948,40	64000,00
948,83	64000,00
949,26	64000,00
949,70	64000,00
950,13	64000,00
950,56	64000,00
950,99	64000,00
951,43	64000,00
951,86	64000,00
952,29	64000,00
952,72	64000,00
953,15	64000,00
953,59	64000,00
954,02	64000,00
954,45	64000,00
954,88	64000,00
955,31	64000,00
955,75	64000,00
956,18	64000,00
956,61	64000,00
957,04	64000,00
957,47	64000,00
957,91	64000,00
958,34	64000,00
958,77	64000,00
959,20	64000,00
959,63	64000,00
960,06	64000,00
960,50	64000,00
960,93	64000,00
961,36	64000,00
961,79	64000,00
962,22	64000,00
962,65	64000,00
963,09	64000,00
963,52	64000,00
963,95	64000,00
964,38	64000,00
964,81	64000,00
965,24	64000,00
965,67	64000,00
966,10	64000,00
966,54	64000,00
966,97	64000,00
967,40	64000,00
967,83	64000,00
968,26	64000,00
968,69	64000,00
969,12	64000,00
969,55	64000,00
969,98	64000,00
970,42	64000,00
970,85	64000,00
971,28	64000,00
971,71	64000,00
972,14	64000,00
972,57	64000,00
973,00	64000,00
973,43	64000,00
973,86	64000,00
974,29	64000,00
974,72	64000,00
975,15	64000,00
975,58	64000,00
976,01	64000,00
976,45	64000,00
976,88	64000,00
977,31	64000,00
977,74	64000,00
978,17	64000,00
978,60	64000,00
979,03	64000,00
979,46	64000,00
979,89	64000,00
980,32	64000,00
980,75	64000,00
981,18	64000,00
981,61	64000,00
982,04	64000,00
982,47	64000,00
982,90	64000,00
983,33	64000,00
983,76	64000,00
984,19	64000,00
984,62	64000,00
985,05	64000,00
985,48	64000,00
985,91	64000,00
986,34	64000,00
986,77	64000,00
987,20	64000,00
987,63	64000,00
988,06	64000,00
988,49	64000,00
988,92	64000,00
989,35	64000,00
989,78	64000,00
990,20	64000,00
990,63	64000,00
991,06	64000,00
991,49	64000,00
991,92	64000,00
992,35	64000,00
992,78	64000,00
993,21	64000,00
993,64	64000,00
994,07	64000,00
994,50	64000,00
994,93	64000,00
995,36	64000,00
995,79	64000,00
996,21	64000,00
996,64	64000,00
997,07	64000,00
997,50	64000,00
997,93	64000,00
998,36	64000,00
998,79	64000,00
999,22	64000,00
999,65	64000,00
1000,07	64000,00
1000,50	64000,00
1000,93	64000,00
1001,36	64000,00
1001,79	64000,00
1002,22	64000,00
1002,65	64000,00
1003,08	64000,00
1003,50	64000,00
1003,93	64000,00
1004,36	64000,00
1004,79	64000,00
1005,22	64000,00
1005,65	64000,00
1006,07	64000,00
1006,50	64000,00
1006,93	64000,00
1007,36	64000,00
1007,79	64000,00
1008,22	64000,00
1008,64	64000,00
1009,07	64000,00
1009,50	64000,00
1009,93	64000,00
1010,36	64000,00
1010,78	64000,00
1011,21	64000,00
1011,64	64000,00
1012,07	64000,00
1012,50	64000,00
1012,92	64000,00
1013,35	64000,00
1013,78	64000,00
1014,21	64000,00
1014,64	64000,00
1015,06	64000,00
1015,49	64000,00
1015,92	64000,00
1016,35	64000,00
1016,77	64000,00
1017,20	64000,00
1017,63	64000,00
1018,06	64000,00
1018,48	64000,00
1018,91	64000,00
1019,34	64000,00
1019,77	64000,00
1020,19	64000,00
1020,62	64000,00
1021,05	64000,00
1021,47	64000,00
1021,90	64000,00
1022,33	64000,00
1022,76	64000,00
1023,18	64000,00
1023,61	64000,00
1024,04	64000,00
1024,46	64000,00
1024,89	64000,00
1025,32	64000,00
1025,75	64000,00
1026,17	64000,00
1026,60	64000,00
1027,03	64000,00
1027,45	64000,00
1027,88	64000,00
1028,31	64000,00
1028,73	64000,00
1029,16	64000,00
1029,59	64000,00
1030,01	64000,00
1030,44	64000,00
1030,87	64000,00
1031,29	64000,00
1031,72	64000,00
1032,15	64000,00
1032,57	64000,00
1033,00	64000,00
1033,42	64000,00
1033,85	64000,00
1034,28	64000,00
1034,70	64000,00
1035,13	64000,00
1035,56	64000,00
1035,98	64000,00
1036,41	64000,00
1036,83	64000,00
1037,26	64000,00
1037,69	64000,00
1038,11	64000,00
1038,54	64000,00
1038,96	64000,00
1039,39	64000,00
1039,82	64000,00
1040,24	64000,00
1040,67	64000,00
1041,09	64000,00
1041,52	64000,00
1041,95	64000,00
1042,37	64000,00
1042,80	64000,00
1043,22	64000,00
1043,65	64000,00
1044,07	64000,00
1044,50	64000,00
1044,92	64000,00
1045,35	64000,00
1045,78	64000,00
1046,20	64000,00
1046,63	64000,00
1047,05	64000,00
1047,48	64000,00
1047,90	64000,00
1048,33	64000,00
1048,75	64000,00
1049,18	64000,00
1049,60	64000,00
1050,03	64000,00
1050,45	64000,00
1050,88	64000,00
1051,30	64000,00
1051,73	64000,00
1052,15	64000,00
1052,58	64000,00
1053,00	64000,00
1053,43	64000,00
1053,85	64000,00
1054,28	64000,00
1054,70	64000,00
1055,13	64000,00
1055,55	64000,00
1055,98	64000,00
1056,40	64000,00
1056,83	64000,00
1057,25	64000,00
1057,68	64000,00
1058,10	64000,00
1058,52	64000,00
1058,95	64000,00
1059,37	64000,00
1059,80	64000,00
1060,22	64000,00
1060,65	64000,00
1061,07	64000,00
1061,50	64000,00
1061,92	64000,00
1062,34	64000,00
1062,77	64000,00
1063,19	64000,00
1063,62	64000,00
1064,04	64000,00
1064,46	64000,00
1064,89	64000,00
1065,31	64000,00
1065,74	64000,00
1066,16	64000,00
1066,58	64000,00
1067,01	64000,00
1067,43	64000,00
1067,86	64000,00
1068,28	64000,00
1068,70	64000,00
1069,13	64000,00
1069,55	64000,00
1069,97	64000,00
1070,40	64000,00
1070,82	64000,00
1071,25	64000,00
1071,67	64000,00
1072,09	64000,00
1072,52	64000,00
1072,94	64000,00
1073,36	64000,00
1073,79	64000,00
1074,21	64000,00
1074,63	64000,00
1075,06	64000,00
1075,48	64000,00
1075,90	64000,00
1076,33	64000,00
1076,75	64000,00
1077,17	64000,00
1077,59	64000,00
1078,02	64000,00
1078,44	64000,00
1078,86	64000,00
1079,29	62423,20
1079,71	62343,10
1080,13	61156,00
1080,56	60298,60
1080,98	59754,40
1081,40	58889,80
1081,82	57959,60
1082,25	57757,60
1082,67	56801,70
1083,09	56296,20
1083,51	55849,70
1083,94	55355,20
1084,36	55438,00
1084,78	54537,40
1085,21	54052,00
1085,63	54572,30
1086,05	53270,50
1086,47	53244,30
1086,89	53335,80
1087,32	52363,90
1087,74	53175,40
1088,16	63890,00
1088,58	52828,00
1089,01	51733,40
1089,43	51412,70
1089,85	51049,70
1090,27	51151,60
1090,69	50107,70
1091,12	49125,20
1091,54	48460,40
1091,96	47803,60
1092,38	46845,20
1092,80	46589,10
1093,23	45670,90
1093,65	45303,50
1094,07	44612,70
1094,49	44160,80
1094,91	43640,50
1095,34	43346,00
1095,76	42784,90
1096,18	42613,50
1096,60	42551,90
1097,02	41532,60
1097,44	41681,30
1097,87	41204,70
1098,29	41585,60
1098,71	41320,80
1099,13	41016,50
1099,55	40502,00
1099,97	40047,70
1100,39	39441,50
1100,82	39135,40
1101,24	38411,80
1101,66	37840,60
1102,08	36686,70
1102,50	36270,60
1102,92	35803,70
1103,34	35369,50
1103,76	35186,80
1104,19	39359,00
1104,61	35194,00
1105,03	33319,80
1105,45	34154,40
1105,87	33867,20
1106,29	33458,80
1106,71	33489,00
1107,13	32367,40
1107,55	32278,10
1107,97	32909,10
1108,39	31163,80
1108,82	31495,20
1109,24	30788,30
1109,66	30283,80
1110,08	28828,60
1110,50	28998,40
1110,92	28281,50
1111,34	28432,70
1111,76	27889,70
1112,18	27895,40
1112,60	27491,10
1113,02	27676,90
1113,44	26642,30
1113,86	25665,80
1114,28	25352,00
1114,70	24814,20
1115,12	23829,20
1115,54	23952,10
1115,96	23300,20
1116,38	22007,80
1116,80	20683,60
1117,22	19045,40
1117,64	18323,10
1118,06	1846,20
1118,48	2241,00
1118,90	2200,30
1119,32	2202,20
>>>>>End Processed Spectral Data<<<<<
