SpectraSuite Data File
++++++++++++++++++++++++++++++++++++
Date: Tue Oct 14 10:35:47 EEST 2014
User: OO Maya
Dark Spectrum Present: No
Reference Spectrum Present: No
Number of Sampled Component Spectra: 1
Spectrometers: MAYP11278
Integration Time (usec): 10000000 (MAYP11278)
Spectra Averaged: 5 (MAYP11278)
Boxcar Smoothing: 0 (MAYP11278)
Correct for Electrical Dark: No (MAYP11278)
Strobe/Lamp Enabled: No (MAYP11278)
Correct for Detector Non-linearity: No (MAYP11278)
Correct for Stray Light: No (MAYP11278)
Number of Pixels in Processed Spectrum: 2068
>>>>>Begin Processed Spectral Data<<<<<
188,14	2317,80
188,62	2230,20
189,09	2200,00
189,57	2201,20
190,05	20513,60
190,53	22663,20
191,01	23712,60
191,49	24165,80
191,97	25385,80
192,44	24452,80
192,92	23966,40
193,40	23460,00
193,88	24444,80
194,36	24303,60
194,84	24850,80
195,31	24127,80
195,79	25347,80
196,27	24162,20
196,75	24327,60
197,23	27217,20
197,70	24418,40
198,18	23577,00
198,66	24293,40
199,14	23703,80
199,62	24980,80
200,09	25339,40
200,57	24209,20
201,05	24326,20
201,53	25256,60
202,01	25175,60
202,48	25142,40
202,96	23461,40
203,44	24880,80
203,92	23734,80
204,40	25465,60
204,87	25901,60
205,35	24005,20
205,83	24048,80
206,31	26022,00
206,78	24355,40
207,26	25023,40
207,74	27319,40
208,22	24792,40
208,69	25298,60
209,17	24344,20
209,65	25563,60
210,13	25346,00
210,60	24664,20
211,08	24635,00
211,56	25199,40
212,04	24708,80
212,51	23848,60
212,99	26638,60
213,47	25287,60
213,95	24180,80
214,42	26225,00
214,90	25093,20
215,38	26243,80
215,85	25239,20
216,33	25419,60
216,81	25357,20
217,29	25427,40
217,76	24031,20
218,24	24768,20
218,72	26150,40
219,19	23494,20
219,67	23973,60
220,15	24179,20
220,62	24738,80
221,10	27098,20
221,58	24228,20
222,05	25829,60
222,53	24288,60
223,01	25742,60
223,49	24529,40
223,96	25695,00
224,44	24678,60
224,92	24339,00
225,39	23945,80
225,87	24644,80
226,35	24208,40
226,82	24812,00
227,30	25961,60
227,77	24775,20
228,25	25431,80
228,73	25586,80
229,20	25544,40
229,68	24704,00
230,16	25061,80
230,63	24514,40
231,11	25616,60
231,59	25661,40
232,06	25011,60
232,54	25228,20
233,02	24074,80
233,49	25124,20
233,97	25166,40
234,44	28697,00
234,92	25517,40
235,40	24437,00
235,87	24168,80
236,35	23741,20
236,82	26049,40
237,30	27315,20
237,78	24502,80
238,25	25111,20
238,73	25183,00
239,20	25130,40
239,68	24840,60
240,16	23841,60
240,63	25647,00
241,11	26562,80
241,58	25309,00
242,06	24839,00
242,53	26011,00
243,01	26319,60
243,49	24121,80
243,96	24348,20
244,44	25936,80
244,91	26439,00
245,39	24804,20
245,86	26276,80
246,34	62855,60
246,82	24099,00
247,29	25283,60
247,77	25261,60
248,24	25442,60
248,72	25605,40
249,19	23726,20
249,67	25167,20
250,14	25937,20
250,62	25468,40
251,09	26611,20
251,57	25339,60
252,04	27374,00
252,52	26631,20
253,00	24709,80
253,47	26558,20
253,95	25389,00
254,42	25105,40
254,90	25628,40
255,37	25611,80
255,85	26188,60
256,32	24903,00
256,80	25555,20
257,27	25826,80
257,75	26331,00
258,22	28607,20
258,70	25621,20
259,17	24864,00
259,65	25648,20
260,12	25913,00
260,59	27041,60
261,07	25201,00
261,54	25048,40
262,02	26521,60
262,49	24858,40
262,97	25748,00
263,44	25339,60
263,92	24321,20
264,39	26233,40
264,87	26535,20
265,34	24951,80
265,82	25622,40
266,29	25881,20
266,76	26260,40
267,24	25271,20
267,71	25553,40
268,19	25934,00
268,66	26165,00
269,14	24140,40
269,61	24738,80
270,09	24778,20
270,56	25971,20
271,03	26629,60
271,51	25153,00
271,98	25548,80
272,46	24400,40
272,93	24534,60
273,40	23964,80
273,88	25668,40
274,35	29341,20
274,83	26199,60
275,30	26357,00
275,78	25114,40
276,25	25557,00
276,72	26219,00
277,20	26335,00
277,67	24428,80
278,14	25176,40
278,62	24087,80
279,09	29115,00
279,57	24717,80
280,04	24596,00
280,51	29579,40
280,99	27355,00
281,46	30136,80
281,93	26238,00
282,41	27680,00
282,88	26247,00
283,36	26212,60
283,83	26654,60
284,30	25300,00
284,78	25134,20
285,25	26729,80
285,72	25980,60
286,20	26383,20
286,67	26224,80
287,14	24729,80
287,62	26524,80
288,09	27664,00
288,56	26050,80
289,04	27057,40
289,51	24666,60
289,98	27956,80
290,46	25545,80
290,93	26564,60
291,40	25642,40
291,88	26463,20
292,35	28719,60
292,82	25700,60
293,29	27482,20
293,77	25859,80
294,24	26898,00
294,71	27014,60
295,19	26081,80
295,66	26558,60
296,13	26946,20
296,61	28719,60
297,08	28522,60
297,55	27517,00
298,02	27288,80
298,50	27143,60
298,97	26263,80
299,44	28445,00
299,91	26602,40
300,39	27246,80
300,86	26292,80
301,33	27961,00
301,81	28007,60
302,28	27925,20
302,75	26110,20
303,22	27865,40
303,70	28052,00
304,17	26713,60
304,64	26930,20
305,11	26629,20
305,58	27598,40
306,06	27745,40
306,53	27599,20
307,00	28136,80
307,47	26959,60
307,95	26967,00
308,42	27610,20
308,89	27040,60
309,36	28502,80
309,83	28619,20
310,31	28124,40
310,78	27913,60
311,25	28471,00
311,72	27510,80
312,20	29199,80
312,67	27967,40
313,14	29822,00
313,61	27426,40
314,08	27738,80
314,56	28296,40
315,03	27563,60
315,50	27542,40
315,97	29078,00
316,44	28879,00
316,91	28706,40
317,39	29128,20
317,86	28832,40
318,33	31683,20
318,80	28755,20
319,27	28605,80
319,74	27626,80
320,22	29455,20
320,69	30989,60
321,16	30133,00
321,63	28886,40
322,10	27685,00
322,57	28305,40
323,04	31041,00
323,52	28844,80
323,99	31899,40
324,46	27780,20
324,93	29550,00
325,40	29383,00
325,87	29346,00
326,34	29609,20
326,82	29749,20
327,29	30796,00
327,76	30906,60
328,23	31083,00
328,70	30773,80
329,17	30265,80
329,64	30100,40
330,11	30184,60
330,58	29728,60
331,05	31084,60
331,53	30526,80
332,00	31809,60
332,47	29706,80
332,94	32796,60
333,41	32153,40
333,88	32301,20
334,35	33259,20
334,82	32253,80
335,29	32811,40
335,76	36223,00
336,23	31672,00
336,70	32622,80
337,18	32166,20
337,65	32688,80
338,12	32085,60
338,59	32006,40
339,06	34142,20
339,53	33266,80
340,00	31391,20
340,47	31499,80
340,94	31757,80
341,41	32800,40
341,88	33830,60
342,35	32306,60
342,82	33067,80
343,29	33457,60
343,76	33126,00
344,23	32450,20
344,70	32826,00
345,17	32047,20
345,64	32824,60
346,11	33567,40
346,58	32488,20
347,05	32391,80
347,52	34710,00
347,99	32594,60
348,46	34370,20
348,93	33535,20
349,40	32215,80
349,87	33616,60
350,34	34365,60
350,81	33704,40
351,28	32818,40
351,75	34162,00
352,22	35801,20
352,69	34152,20
353,16	33783,60
353,63	34113,40
354,10	34845,80
354,57	34452,80
355,04	34948,40
355,51	34659,20
355,98	36246,20
356,45	34012,40
356,92	36472,00
357,39	34216,60
357,86	37388,40
358,33	35986,60
358,80	34152,40
359,27	34532,00
359,74	34982,20
360,21	35128,60
360,68	36654,80
361,14	37344,80
361,61	35634,60
362,08	35911,60
362,55	36294,60
363,02	36125,20
363,49	36190,00
363,96	39043,60
364,43	37327,20
364,90	36058,20
365,37	37548,60
365,84	36804,20
366,31	36272,20
366,77	37886,20
367,24	37815,40
367,71	52588,40
368,18	36686,80
368,65	37453,80
369,12	39202,60
369,59	37686,40
370,06	39626,00
370,53	39239,40
370,99	38785,40
371,46	47197,80
371,93	39858,20
372,40	38979,40
372,87	38544,80
373,34	39333,00
373,81	40406,40
374,27	39357,60
374,74	39995,40
375,21	41469,60
375,68	39960,60
376,15	43141,00
376,62	41412,60
377,09	41107,80
377,55	41297,60
378,02	43009,80
378,49	43141,00
378,96	42889,60
379,43	43377,20
379,90	43542,60
380,36	44453,80
380,83	45766,60
381,30	44729,60
381,77	46485,40
382,24	46614,60
382,71	44331,80
383,17	46080,00
383,64	45639,40
384,11	47629,20
384,58	46691,40
385,05	52384,40
385,51	47413,20
385,98	47428,40
386,45	47794,40
386,92	50098,00
387,39	48032,20
387,85	47991,00
388,32	50471,40
388,79	50120,80
389,26	51194,20
389,72	49928,40
390,19	51313,00
390,66	51329,20
391,13	52186,40
391,59	52233,60
392,06	52722,40
392,53	53272,40
393,00	53252,40
393,46	53440,80
393,93	56494,20
394,40	54568,80
394,87	56071,40
395,33	54758,20
395,80	56470,60
396,27	61097,00
396,74	55539,80
397,20	57637,00
397,67	58289,40
398,14	57052,60
398,61	58289,00
399,07	58191,00
399,54	58315,40
400,01	60627,20
400,47	59240,60
400,94	60263,80
401,41	60559,00
401,88	61863,20
402,34	62114,00
402,81	62457,00
403,28	62095,60
403,74	64000,00
404,21	63563,80
404,68	64000,00
405,14	64000,00
405,61	64000,00
406,08	64000,00
406,54	64000,00
407,01	64000,00
407,48	64000,00
407,95	64000,00
408,41	64000,00
408,88	64000,00
409,35	64000,00
409,81	64000,00
410,28	64000,00
410,74	64000,00
411,21	64000,00
411,68	64000,00
412,14	64000,00
412,61	64000,00
413,08	64000,00
413,54	64000,00
414,01	64000,00
414,48	64000,00
414,94	64000,00
415,41	64000,00
415,88	64000,00
416,34	64000,00
416,81	64000,00
417,27	64000,00
417,74	64000,00
418,21	64000,00
418,67	64000,00
419,14	64000,00
419,60	64000,00
420,07	64000,00
420,54	64000,00
421,00	64000,00
421,47	64000,00
421,93	64000,00
422,40	64000,00
422,87	64000,00
423,33	64000,00
423,80	64000,00
424,26	64000,00
424,73	64000,00
425,19	64000,00
425,66	64000,00
426,13	64000,00
426,59	64000,00
427,06	64000,00
427,52	64000,00
427,99	64000,00
428,45	64000,00
428,92	64000,00
429,38	64000,00
429,85	64000,00
430,32	64000,00
430,78	64000,00
431,25	64000,00
431,71	64000,00
432,18	64000,00
432,64	64000,00
433,11	64000,00
433,57	64000,00
434,04	64000,00
434,50	64000,00
434,97	64000,00
435,43	64000,00
435,90	64000,00
436,36	64000,00
436,83	64000,00
437,29	64000,00
437,76	64000,00
438,22	64000,00
438,69	64000,00
439,15	64000,00
439,62	64000,00
440,08	64000,00
440,55	64000,00
441,01	64000,00
441,48	64000,00
441,94	64000,00
442,41	64000,00
442,87	64000,00
443,34	64000,00
443,80	64000,00
444,27	64000,00
444,73	64000,00
445,20	64000,00
445,66	64000,00
446,12	64000,00
446,59	64000,00
447,05	64000,00
447,52	64000,00
447,98	64000,00
448,45	64000,00
448,91	64000,00
449,38	64000,00
449,84	64000,00
450,30	64000,00
450,77	64000,00
451,23	64000,00
451,70	64000,00
452,16	64000,00
452,63	64000,00
453,09	64000,00
453,55	64000,00
454,02	64000,00
454,48	64000,00
454,95	64000,00
455,41	64000,00
455,87	64000,00
456,34	64000,00
456,80	64000,00
457,27	64000,00
457,73	64000,00
458,19	64000,00
458,66	64000,00
459,12	64000,00
459,58	64000,00
460,05	64000,00
460,51	64000,00
460,98	64000,00
461,44	64000,00
461,90	64000,00
462,37	64000,00
462,83	64000,00
463,29	64000,00
463,76	64000,00
464,22	64000,00
464,68	64000,00
465,15	64000,00
465,61	64000,00
466,07	64000,00
466,54	64000,00
467,00	64000,00
467,46	64000,00
467,93	64000,00
468,39	64000,00
468,85	64000,00
469,32	64000,00
469,78	64000,00
470,24	64000,00
470,71	64000,00
471,17	64000,00
471,63	64000,00
472,10	64000,00
472,56	64000,00
473,02	64000,00
473,48	64000,00
473,95	64000,00
474,41	64000,00
474,87	64000,00
475,34	64000,00
475,80	64000,00
476,26	64000,00
476,72	64000,00
477,19	64000,00
477,65	64000,00
478,11	64000,00
478,58	64000,00
479,04	64000,00
479,50	64000,00
479,96	64000,00
480,43	64000,00
480,89	64000,00
481,35	64000,00
481,81	64000,00
482,28	64000,00
482,74	64000,00
483,20	64000,00
483,66	64000,00
484,13	64000,00
484,59	64000,00
485,05	64000,00
485,51	64000,00
485,97	64000,00
486,44	64000,00
486,90	64000,00
487,36	64000,00
487,82	64000,00
488,29	64000,00
488,75	64000,00
489,21	64000,00
489,67	64000,00
490,13	64000,00
490,60	64000,00
491,06	64000,00
491,52	64000,00
491,98	64000,00
492,44	64000,00
492,90	64000,00
493,37	64000,00
493,83	64000,00
494,29	64000,00
494,75	64000,00
495,21	64000,00
495,67	64000,00
496,14	64000,00
496,60	64000,00
497,06	64000,00
497,52	64000,00
497,98	64000,00
498,44	64000,00
498,91	64000,00
499,37	64000,00
499,83	64000,00
500,29	64000,00
500,75	64000,00
501,21	64000,00
501,67	64000,00
502,14	64000,00
502,60	64000,00
503,06	64000,00
503,52	64000,00
503,98	64000,00
504,44	64000,00
504,90	64000,00
505,36	64000,00
505,82	64000,00
506,29	64000,00
506,75	64000,00
507,21	64000,00
507,67	64000,00
508,13	64000,00
508,59	64000,00
509,05	64000,00
509,51	64000,00
509,97	64000,00
510,43	64000,00
510,89	64000,00
511,35	64000,00
511,82	64000,00
512,28	64000,00
512,74	64000,00
513,20	64000,00
513,66	64000,00
514,12	64000,00
514,58	64000,00
515,04	64000,00
515,50	64000,00
515,96	64000,00
516,42	64000,00
516,88	64000,00
517,34	64000,00
517,80	64000,00
518,26	64000,00
518,72	64000,00
519,18	64000,00
519,64	64000,00
520,10	64000,00
520,56	64000,00
521,02	64000,00
521,48	64000,00
521,94	64000,00
522,40	64000,00
522,86	64000,00
523,32	64000,00
523,78	64000,00
524,24	64000,00
524,70	64000,00
525,16	64000,00
525,62	64000,00
526,08	64000,00
526,54	64000,00
527,00	64000,00
527,46	64000,00
527,92	64000,00
528,38	64000,00
528,84	64000,00
529,30	64000,00
529,76	64000,00
530,22	64000,00
530,68	64000,00
531,14	64000,00
531,60	64000,00
532,06	64000,00
532,52	64000,00
532,98	64000,00
533,44	64000,00
533,90	64000,00
534,36	64000,00
534,82	64000,00
535,28	64000,00
535,73	64000,00
536,19	64000,00
536,65	64000,00
537,11	64000,00
537,57	64000,00
538,03	64000,00
538,49	64000,00
538,95	64000,00
539,41	64000,00
539,87	64000,00
540,33	64000,00
540,79	64000,00
541,24	64000,00
541,70	64000,00
542,16	64000,00
542,62	64000,00
543,08	64000,00
543,54	64000,00
544,00	64000,00
544,46	64000,00
544,91	64000,00
545,37	64000,00
545,83	64000,00
546,29	64000,00
546,75	64000,00
547,21	64000,00
547,67	64000,00
548,13	64000,00
548,58	64000,00
549,04	64000,00
549,50	64000,00
549,96	64000,00
550,42	64000,00
550,88	64000,00
551,33	64000,00
551,79	64000,00
552,25	64000,00
552,71	64000,00
553,17	64000,00
553,63	64000,00
554,08	64000,00
554,54	64000,00
555,00	64000,00
555,46	64000,00
555,92	64000,00
556,37	64000,00
556,83	64000,00
557,29	64000,00
557,75	64000,00
558,21	64000,00
558,66	64000,00
559,12	64000,00
559,58	64000,00
560,04	64000,00
560,50	64000,00
560,95	64000,00
561,41	64000,00
561,87	64000,00
562,33	64000,00
562,78	64000,00
563,24	64000,00
563,70	64000,00
564,16	64000,00
564,61	64000,00
565,07	64000,00
565,53	64000,00
565,99	64000,00
566,44	64000,00
566,90	64000,00
567,36	64000,00
567,82	64000,00
568,27	64000,00
568,73	64000,00
569,19	64000,00
569,65	64000,00
570,10	64000,00
570,56	64000,00
571,02	64000,00
571,47	64000,00
571,93	64000,00
572,39	64000,00
572,85	64000,00
573,30	64000,00
573,76	64000,00
574,22	64000,00
574,67	64000,00
575,13	64000,00
575,59	64000,00
576,04	64000,00
576,50	64000,00
576,96	64000,00
577,42	64000,00
577,87	64000,00
578,33	64000,00
578,79	64000,00
579,24	64000,00
579,70	64000,00
580,16	64000,00
580,61	64000,00
581,07	64000,00
581,53	64000,00
581,98	64000,00
582,44	64000,00
582,89	64000,00
583,35	64000,00
583,81	64000,00
584,26	64000,00
584,72	64000,00
585,18	64000,00
585,63	64000,00
586,09	64000,00
586,55	64000,00
587,00	64000,00
587,46	64000,00
587,91	64000,00
588,37	64000,00
588,83	64000,00
589,28	64000,00
589,74	64000,00
590,19	64000,00
590,65	64000,00
591,11	64000,00
591,56	64000,00
592,02	64000,00
592,47	64000,00
592,93	64000,00
593,39	64000,00
593,84	64000,00
594,30	64000,00
594,75	64000,00
595,21	64000,00
595,66	64000,00
596,12	64000,00
596,58	64000,00
597,03	64000,00
597,49	64000,00
597,94	64000,00
598,40	64000,00
598,85	64000,00
599,31	64000,00
599,76	64000,00
600,22	64000,00
600,67	64000,00
601,13	64000,00
601,59	64000,00
602,04	64000,00
602,50	64000,00
602,95	64000,00
603,41	64000,00
603,86	64000,00
604,32	64000,00
604,77	64000,00
605,23	64000,00
605,68	64000,00
606,14	64000,00
606,59	64000,00
607,05	64000,00
607,50	64000,00
607,96	64000,00
608,41	64000,00
608,87	64000,00
609,32	64000,00
609,78	64000,00
610,23	64000,00
610,69	64000,00
611,14	64000,00
611,60	64000,00
612,05	64000,00
612,50	64000,00
612,96	64000,00
613,41	64000,00
613,87	64000,00
614,32	64000,00
614,78	64000,00
615,23	64000,00
615,69	64000,00
616,14	64000,00
616,59	64000,00
617,05	64000,00
617,50	64000,00
617,96	64000,00
618,41	64000,00
618,87	64000,00
619,32	64000,00
619,77	64000,00
620,23	64000,00
620,68	64000,00
621,14	64000,00
621,59	64000,00
622,05	64000,00
622,50	64000,00
622,95	64000,00
623,41	64000,00
623,86	64000,00
624,32	64000,00
624,77	64000,00
625,22	64000,00
625,68	64000,00
626,13	64000,00
626,58	64000,00
627,04	64000,00
627,49	64000,00
627,95	64000,00
628,40	64000,00
628,85	64000,00
629,31	64000,00
629,76	64000,00
630,21	64000,00
630,67	64000,00
631,12	64000,00
631,57	64000,00
632,03	64000,00
632,48	64000,00
632,93	64000,00
633,39	64000,00
633,84	64000,00
634,29	64000,00
634,75	64000,00
635,20	64000,00
635,65	64000,00
636,11	64000,00
636,56	64000,00
637,01	64000,00
637,47	64000,00
637,92	64000,00
638,37	64000,00
638,83	64000,00
639,28	64000,00
639,73	64000,00
640,18	64000,00
640,64	64000,00
641,09	64000,00
641,54	64000,00
642,00	64000,00
642,45	64000,00
642,90	64000,00
643,35	64000,00
643,81	64000,00
644,26	64000,00
644,71	64000,00
645,17	64000,00
645,62	64000,00
646,07	64000,00
646,52	64000,00
646,98	64000,00
647,43	64000,00
647,88	64000,00
648,33	64000,00
648,79	64000,00
649,24	64000,00
649,69	64000,00
650,14	64000,00
650,59	64000,00
651,05	64000,00
651,50	64000,00
651,95	64000,00
652,40	64000,00
652,86	64000,00
653,31	64000,00
653,76	64000,00
654,21	64000,00
654,66	64000,00
655,12	64000,00
655,57	64000,00
656,02	64000,00
656,47	64000,00
656,92	64000,00
657,38	64000,00
657,83	64000,00
658,28	64000,00
658,73	64000,00
659,18	64000,00
659,63	64000,00
660,09	64000,00
660,54	64000,00
660,99	64000,00
661,44	64000,00
661,89	64000,00
662,34	64000,00
662,80	64000,00
663,25	64000,00
663,70	64000,00
664,15	64000,00
664,60	64000,00
665,05	64000,00
665,50	64000,00
665,96	64000,00
666,41	64000,00
666,86	64000,00
667,31	64000,00
667,76	64000,00
668,21	64000,00
668,66	64000,00
669,11	64000,00
669,56	64000,00
670,02	64000,00
670,47	64000,00
670,92	64000,00
671,37	64000,00
671,82	64000,00
672,27	64000,00
672,72	64000,00
673,17	64000,00
673,62	64000,00
674,07	64000,00
674,52	64000,00
674,98	64000,00
675,43	64000,00
675,88	64000,00
676,33	64000,00
676,78	64000,00
677,23	64000,00
677,68	64000,00
678,13	64000,00
678,58	64000,00
679,03	64000,00
679,48	64000,00
679,93	64000,00
680,38	64000,00
680,83	64000,00
681,28	64000,00
681,73	64000,00
682,18	64000,00
682,63	64000,00
683,08	64000,00
683,53	64000,00
683,98	64000,00
684,43	64000,00
684,89	64000,00
685,34	64000,00
685,79	64000,00
686,24	64000,00
686,69	64000,00
687,14	64000,00
687,59	64000,00
688,04	64000,00
688,49	64000,00
688,93	64000,00
689,38	64000,00
689,83	64000,00
690,28	64000,00
690,73	64000,00
691,18	64000,00
691,63	64000,00
692,08	64000,00
692,53	64000,00
692,98	64000,00
693,43	64000,00
693,88	64000,00
694,33	64000,00
694,78	64000,00
695,23	64000,00
695,68	64000,00
696,13	64000,00
696,58	64000,00
697,03	64000,00
697,48	64000,00
697,93	64000,00
698,38	64000,00
698,82	64000,00
699,27	64000,00
699,72	64000,00
700,17	64000,00
700,62	64000,00
701,07	64000,00
701,52	64000,00
701,97	64000,00
702,42	64000,00
702,87	64000,00
703,32	64000,00
703,76	64000,00
704,21	64000,00
704,66	64000,00
705,11	64000,00
705,56	64000,00
706,01	64000,00
706,46	64000,00
706,91	64000,00
707,36	64000,00
707,80	64000,00
708,25	64000,00
708,70	64000,00
709,15	64000,00
709,60	64000,00
710,05	64000,00
710,50	64000,00
710,94	64000,00
711,39	64000,00
711,84	64000,00
712,29	64000,00
712,74	64000,00
713,19	64000,00
713,63	64000,00
714,08	64000,00
714,53	64000,00
714,98	64000,00
715,43	64000,00
715,87	64000,00
716,32	64000,00
716,77	64000,00
717,22	64000,00
717,67	64000,00
718,12	64000,00
718,56	64000,00
719,01	64000,00
719,46	64000,00
719,91	64000,00
720,35	64000,00
720,80	64000,00
721,25	64000,00
721,70	64000,00
722,15	64000,00
722,59	64000,00
723,04	64000,00
723,49	64000,00
723,94	64000,00
724,38	64000,00
724,83	64000,00
725,28	64000,00
725,73	64000,00
726,17	64000,00
726,62	64000,00
727,07	64000,00
727,52	64000,00
727,96	64000,00
728,41	64000,00
728,86	64000,00
729,31	64000,00
729,75	64000,00
730,20	64000,00
730,65	64000,00
731,09	64000,00
731,54	64000,00
731,99	64000,00
732,44	64000,00
732,88	64000,00
733,33	64000,00
733,78	64000,00
734,22	64000,00
734,67	64000,00
735,12	64000,00
735,57	64000,00
736,01	64000,00
736,46	64000,00
736,91	64000,00
737,35	64000,00
737,80	64000,00
738,25	64000,00
738,69	64000,00
739,14	64000,00
739,59	64000,00
740,03	64000,00
740,48	64000,00
740,93	64000,00
741,37	64000,00
741,82	64000,00
742,26	64000,00
742,71	64000,00
743,16	64000,00
743,60	64000,00
744,05	64000,00
744,50	64000,00
744,94	64000,00
745,39	64000,00
745,84	64000,00
746,28	64000,00
746,73	64000,00
747,17	64000,00
747,62	64000,00
748,07	64000,00
748,51	64000,00
748,96	64000,00
749,40	64000,00
749,85	64000,00
750,30	64000,00
750,74	64000,00
751,19	64000,00
751,63	64000,00
752,08	64000,00
752,53	64000,00
752,97	64000,00
753,42	64000,00
753,86	64000,00
754,31	64000,00
754,75	64000,00
755,20	64000,00
755,64	64000,00
756,09	64000,00
756,54	64000,00
756,98	64000,00
757,43	64000,00
757,87	64000,00
758,32	64000,00
758,76	64000,00
759,21	64000,00
759,65	64000,00
760,10	64000,00
760,54	64000,00
760,99	64000,00
761,43	64000,00
761,88	64000,00
762,33	64000,00
762,77	64000,00
763,22	64000,00
763,66	64000,00
764,11	64000,00
764,55	64000,00
765,00	64000,00
765,44	64000,00
765,89	64000,00
766,33	64000,00
766,77	64000,00
767,22	64000,00
767,66	64000,00
768,11	64000,00
768,55	64000,00
769,00	64000,00
769,44	64000,00
769,89	64000,00
770,33	64000,00
770,78	64000,00
771,22	64000,00
771,67	64000,00
772,11	64000,00
772,56	64000,00
773,00	64000,00
773,44	64000,00
773,89	64000,00
774,33	64000,00
774,78	64000,00
775,22	64000,00
775,67	64000,00
776,11	64000,00
776,55	64000,00
777,00	64000,00
777,44	64000,00
777,89	64000,00
778,33	64000,00
778,77	64000,00
779,22	64000,00
779,66	64000,00
780,11	64000,00
780,55	64000,00
780,99	64000,00
781,44	64000,00
781,88	64000,00
782,33	64000,00
782,77	64000,00
783,21	64000,00
783,66	64000,00
784,10	64000,00
784,55	64000,00
784,99	64000,00
785,43	64000,00
785,88	64000,00
786,32	64000,00
786,76	64000,00
787,21	64000,00
787,65	64000,00
788,09	64000,00
788,54	64000,00
788,98	64000,00
789,42	64000,00
789,87	64000,00
790,31	64000,00
790,75	64000,00
791,20	64000,00
791,64	64000,00
792,08	64000,00
792,53	64000,00
792,97	64000,00
793,41	64000,00
793,86	64000,00
794,30	64000,00
794,74	64000,00
795,18	64000,00
795,63	64000,00
796,07	64000,00
796,51	64000,00
796,96	64000,00
797,40	64000,00
797,84	64000,00
798,28	64000,00
798,73	64000,00
799,17	64000,00
799,61	64000,00
800,06	64000,00
800,50	64000,00
800,94	64000,00
801,38	64000,00
801,83	64000,00
802,27	64000,00
802,71	64000,00
803,15	64000,00
803,60	64000,00
804,04	64000,00
804,48	64000,00
804,92	64000,00
805,37	64000,00
805,81	64000,00
806,25	64000,00
806,69	64000,00
807,13	64000,00
807,58	64000,00
808,02	64000,00
808,46	64000,00
808,90	64000,00
809,34	64000,00
809,79	64000,00
810,23	64000,00
810,67	64000,00
811,11	64000,00
811,55	64000,00
812,00	64000,00
812,44	64000,00
812,88	64000,00
813,32	64000,00
813,76	64000,00
814,21	64000,00
814,65	64000,00
815,09	64000,00
815,53	64000,00
815,97	64000,00
816,41	64000,00
816,85	64000,00
817,30	64000,00
817,74	64000,00
818,18	64000,00
818,62	64000,00
819,06	64000,00
819,50	64000,00
819,94	64000,00
820,39	64000,00
820,83	64000,00
821,27	64000,00
821,71	64000,00
822,15	64000,00
822,59	64000,00
823,03	64000,00
823,47	64000,00
823,92	64000,00
824,36	64000,00
824,80	64000,00
825,24	64000,00
825,68	64000,00
826,12	64000,00
826,56	64000,00
827,00	64000,00
827,44	64000,00
827,88	64000,00
828,32	64000,00
828,77	64000,00
829,21	64000,00
829,65	64000,00
830,09	64000,00
830,53	64000,00
830,97	64000,00
831,41	64000,00
831,85	64000,00
832,29	64000,00
832,73	64000,00
833,17	64000,00
833,61	64000,00
834,05	64000,00
834,49	64000,00
834,93	64000,00
835,37	64000,00
835,81	64000,00
836,25	64000,00
836,69	64000,00
837,13	64000,00
837,57	64000,00
838,01	64000,00
838,45	64000,00
838,89	64000,00
839,33	64000,00
839,77	64000,00
840,21	64000,00
840,65	64000,00
841,09	64000,00
841,53	64000,00
841,97	64000,00
842,41	64000,00
842,85	64000,00
843,29	64000,00
843,73	64000,00
844,17	64000,00
844,61	64000,00
845,05	64000,00
845,49	64000,00
845,93	64000,00
846,37	64000,00
846,81	64000,00
847,25	64000,00
847,69	64000,00
848,13	64000,00
848,57	64000,00
849,01	64000,00
849,45	64000,00
849,89	64000,00
850,32	64000,00
850,76	64000,00
851,20	64000,00
851,64	64000,00
852,08	64000,00
852,52	64000,00
852,96	64000,00
853,40	64000,00
853,84	64000,00
854,28	64000,00
854,72	64000,00
855,16	64000,00
855,59	64000,00
856,03	64000,00
856,47	64000,00
856,91	64000,00
857,35	64000,00
857,79	64000,00
858,23	64000,00
858,67	64000,00
859,10	64000,00
859,54	64000,00
859,98	64000,00
860,42	64000,00
860,86	64000,00
861,30	64000,00
861,74	64000,00
862,17	64000,00
862,61	64000,00
863,05	64000,00
863,49	64000,00
863,93	64000,00
864,37	64000,00
864,80	64000,00
865,24	64000,00
865,68	64000,00
866,12	64000,00
866,56	64000,00
867,00	64000,00
867,43	64000,00
867,87	64000,00
868,31	64000,00
868,75	64000,00
869,19	64000,00
869,62	64000,00
870,06	64000,00
870,50	64000,00
870,94	64000,00
871,38	64000,00
871,81	64000,00
872,25	64000,00
872,69	64000,00
873,13	64000,00
873,56	64000,00
874,00	64000,00
874,44	64000,00
874,88	64000,00
875,31	64000,00
875,75	64000,00
876,19	64000,00
876,63	64000,00
877,06	64000,00
877,50	64000,00
877,94	64000,00
878,38	64000,00
878,81	64000,00
879,25	64000,00
879,69	64000,00
880,13	64000,00
880,56	64000,00
881,00	64000,00
881,44	64000,00
881,87	64000,00
882,31	64000,00
882,75	64000,00
883,19	64000,00
883,62	64000,00
884,06	64000,00
884,50	64000,00
884,93	64000,00
885,37	64000,00
885,81	64000,00
886,24	64000,00
886,68	64000,00
887,12	64000,00
887,55	64000,00
887,99	64000,00
888,43	64000,00
888,86	64000,00
889,30	64000,00
889,74	64000,00
890,17	64000,00
890,61	64000,00
891,05	64000,00
891,48	64000,00
891,92	64000,00
892,36	64000,00
892,79	64000,00
893,23	64000,00
893,67	64000,00
894,10	64000,00
894,54	64000,00
894,97	64000,00
895,41	64000,00
895,85	64000,00
896,28	64000,00
896,72	64000,00
897,16	64000,00
897,59	64000,00
898,03	64000,00
898,46	64000,00
898,90	64000,00
899,34	64000,00
899,77	64000,00
900,21	64000,00
900,64	64000,00
901,08	64000,00
901,51	64000,00
901,95	64000,00
902,39	64000,00
902,82	64000,00
903,26	64000,00
903,69	64000,00
904,13	64000,00
904,56	64000,00
905,00	64000,00
905,43	64000,00
905,87	64000,00
906,31	64000,00
906,74	64000,00
907,18	64000,00
907,61	64000,00
908,05	64000,00
908,48	64000,00
908,92	64000,00
909,35	64000,00
909,79	64000,00
910,22	64000,00
910,66	64000,00
911,09	64000,00
911,53	64000,00
911,96	64000,00
912,40	64000,00
912,83	64000,00
913,27	64000,00
913,70	64000,00
914,14	64000,00
914,57	64000,00
915,01	64000,00
915,44	64000,00
915,88	64000,00
916,31	64000,00
916,75	64000,00
917,18	64000,00
917,62	64000,00
918,05	64000,00
918,49	64000,00
918,92	64000,00
919,35	64000,00
919,79	64000,00
920,22	64000,00
920,66	64000,00
921,09	64000,00
921,53	64000,00
921,96	64000,00
922,40	64000,00
922,83	64000,00
923,26	64000,00
923,70	64000,00
924,13	64000,00
924,57	64000,00
925,00	64000,00
925,44	64000,00
925,87	64000,00
926,30	64000,00
926,74	64000,00
927,17	64000,00
927,61	64000,00
928,04	64000,00
928,47	64000,00
928,91	64000,00
929,34	64000,00
929,77	64000,00
930,21	64000,00
930,64	64000,00
931,08	64000,00
931,51	64000,00
931,94	64000,00
932,38	64000,00
932,81	64000,00
933,24	64000,00
933,68	64000,00
934,11	64000,00
934,54	64000,00
934,98	64000,00
935,41	64000,00
935,84	64000,00
936,28	64000,00
936,71	64000,00
937,14	64000,00
937,58	64000,00
938,01	64000,00
938,44	64000,00
938,88	64000,00
939,31	64000,00
939,74	64000,00
940,18	64000,00
940,61	64000,00
941,04	64000,00
941,48	64000,00
941,91	64000,00
942,34	64000,00
942,77	64000,00
943,21	64000,00
943,64	64000,00
944,07	64000,00
944,51	64000,00
944,94	64000,00
945,37	64000,00
945,80	64000,00
946,24	64000,00
946,67	64000,00
947,10	64000,00
947,53	64000,00
947,97	64000,00
948,40	64000,00
948,83	64000,00
949,26	64000,00
949,70	64000,00
950,13	64000,00
950,56	64000,00
950,99	64000,00
951,43	64000,00
951,86	64000,00
952,29	64000,00
952,72	64000,00
953,15	64000,00
953,59	64000,00
954,02	64000,00
954,45	64000,00
954,88	64000,00
955,31	64000,00
955,75	64000,00
956,18	64000,00
956,61	64000,00
957,04	64000,00
957,47	64000,00
957,91	64000,00
958,34	64000,00
958,77	64000,00
959,20	64000,00
959,63	64000,00
960,06	64000,00
960,50	64000,00
960,93	64000,00
961,36	64000,00
961,79	64000,00
962,22	64000,00
962,65	64000,00
963,09	64000,00
963,52	64000,00
963,95	64000,00
964,38	64000,00
964,81	64000,00
965,24	64000,00
965,67	64000,00
966,10	64000,00
966,54	64000,00
966,97	64000,00
967,40	64000,00
967,83	64000,00
968,26	64000,00
968,69	64000,00
969,12	64000,00
969,55	64000,00
969,98	64000,00
970,42	64000,00
970,85	64000,00
971,28	64000,00
971,71	64000,00
972,14	64000,00
972,57	64000,00
973,00	64000,00
973,43	64000,00
973,86	64000,00
974,29	64000,00
974,72	64000,00
975,15	64000,00
975,58	64000,00
976,01	64000,00
976,45	64000,00
976,88	64000,00
977,31	64000,00
977,74	64000,00
978,17	64000,00
978,60	64000,00
979,03	64000,00
979,46	64000,00
979,89	64000,00
980,32	64000,00
980,75	64000,00
981,18	64000,00
981,61	64000,00
982,04	64000,00
982,47	64000,00
982,90	64000,00
983,33	64000,00
983,76	64000,00
984,19	64000,00
984,62	64000,00
985,05	64000,00
985,48	64000,00
985,91	64000,00
986,34	64000,00
986,77	64000,00
987,20	64000,00
987,63	64000,00
988,06	64000,00
988,49	64000,00
988,92	64000,00
989,35	64000,00
989,78	64000,00
990,20	64000,00
990,63	64000,00
991,06	64000,00
991,49	64000,00
991,92	64000,00
992,35	64000,00
992,78	64000,00
993,21	64000,00
993,64	64000,00
994,07	64000,00
994,50	64000,00
994,93	64000,00
995,36	64000,00
995,79	64000,00
996,21	64000,00
996,64	64000,00
997,07	64000,00
997,50	64000,00
997,93	64000,00
998,36	64000,00
998,79	64000,00
999,22	64000,00
999,65	64000,00
1000,07	64000,00
1000,50	64000,00
1000,93	64000,00
1001,36	64000,00
1001,79	64000,00
1002,22	64000,00
1002,65	64000,00
1003,08	64000,00
1003,50	64000,00
1003,93	64000,00
1004,36	64000,00
1004,79	64000,00
1005,22	64000,00
1005,65	64000,00
1006,07	64000,00
1006,50	64000,00
1006,93	64000,00
1007,36	64000,00
1007,79	64000,00
1008,22	64000,00
1008,64	64000,00
1009,07	64000,00
1009,50	64000,00
1009,93	64000,00
1010,36	64000,00
1010,78	64000,00
1011,21	64000,00
1011,64	64000,00
1012,07	64000,00
1012,50	64000,00
1012,92	64000,00
1013,35	64000,00
1013,78	64000,00
1014,21	64000,00
1014,64	64000,00
1015,06	64000,00
1015,49	64000,00
1015,92	64000,00
1016,35	64000,00
1016,77	64000,00
1017,20	64000,00
1017,63	64000,00
1018,06	64000,00
1018,48	64000,00
1018,91	64000,00
1019,34	64000,00
1019,77	64000,00
1020,19	64000,00
1020,62	64000,00
1021,05	64000,00
1021,47	64000,00
1021,90	64000,00
1022,33	64000,00
1022,76	64000,00
1023,18	64000,00
1023,61	64000,00
1024,04	64000,00
1024,46	64000,00
1024,89	64000,00
1025,32	64000,00
1025,75	64000,00
1026,17	64000,00
1026,60	64000,00
1027,03	64000,00
1027,45	64000,00
1027,88	64000,00
1028,31	64000,00
1028,73	64000,00
1029,16	64000,00
1029,59	64000,00
1030,01	64000,00
1030,44	64000,00
1030,87	64000,00
1031,29	64000,00
1031,72	64000,00
1032,15	64000,00
1032,57	64000,00
1033,00	64000,00
1033,42	64000,00
1033,85	64000,00
1034,28	64000,00
1034,70	64000,00
1035,13	64000,00
1035,56	64000,00
1035,98	64000,00
1036,41	64000,00
1036,83	64000,00
1037,26	64000,00
1037,69	64000,00
1038,11	64000,00
1038,54	64000,00
1038,96	64000,00
1039,39	64000,00
1039,82	64000,00
1040,24	64000,00
1040,67	64000,00
1041,09	64000,00
1041,52	64000,00
1041,95	64000,00
1042,37	64000,00
1042,80	64000,00
1043,22	64000,00
1043,65	64000,00
1044,07	64000,00
1044,50	64000,00
1044,92	64000,00
1045,35	64000,00
1045,78	64000,00
1046,20	64000,00
1046,63	64000,00
1047,05	64000,00
1047,48	64000,00
1047,90	64000,00
1048,33	64000,00
1048,75	64000,00
1049,18	64000,00
1049,60	64000,00
1050,03	64000,00
1050,45	64000,00
1050,88	64000,00
1051,30	64000,00
1051,73	64000,00
1052,15	64000,00
1052,58	64000,00
1053,00	64000,00
1053,43	64000,00
1053,85	64000,00
1054,28	64000,00
1054,70	64000,00
1055,13	64000,00
1055,55	64000,00
1055,98	64000,00
1056,40	64000,00
1056,83	64000,00
1057,25	64000,00
1057,68	64000,00
1058,10	64000,00
1058,52	64000,00
1058,95	64000,00
1059,37	64000,00
1059,80	64000,00
1060,22	64000,00
1060,65	64000,00
1061,07	64000,00
1061,50	64000,00
1061,92	64000,00
1062,34	64000,00
1062,77	64000,00
1063,19	64000,00
1063,62	64000,00
1064,04	64000,00
1064,46	64000,00
1064,89	64000,00
1065,31	64000,00
1065,74	64000,00
1066,16	64000,00
1066,58	64000,00
1067,01	64000,00
1067,43	64000,00
1067,86	64000,00
1068,28	64000,00
1068,70	64000,00
1069,13	64000,00
1069,55	64000,00
1069,97	64000,00
1070,40	64000,00
1070,82	64000,00
1071,25	64000,00
1071,67	64000,00
1072,09	64000,00
1072,52	64000,00
1072,94	64000,00
1073,36	64000,00
1073,79	64000,00
1074,21	64000,00
1074,63	64000,00
1075,06	64000,00
1075,48	64000,00
1075,90	64000,00
1076,33	64000,00
1076,75	64000,00
1077,17	64000,00
1077,59	64000,00
1078,02	64000,00
1078,44	64000,00
1078,86	64000,00
1079,29	64000,00
1079,71	64000,00
1080,13	64000,00
1080,56	64000,00
1080,98	64000,00
1081,40	64000,00
1081,82	64000,00
1082,25	64000,00
1082,67	64000,00
1083,09	64000,00
1083,51	64000,00
1083,94	64000,00
1084,36	64000,00
1084,78	64000,00
1085,21	64000,00
1085,63	64000,00
1086,05	64000,00
1086,47	64000,00
1086,89	64000,00
1087,32	64000,00
1087,74	64000,00
1088,16	64000,00
1088,58	64000,00
1089,01	64000,00
1089,43	64000,00
1089,85	64000,00
1090,27	64000,00
1090,69	64000,00
1091,12	64000,00
1091,54	64000,00
1091,96	64000,00
1092,38	64000,00
1092,80	64000,00
1093,23	64000,00
1093,65	64000,00
1094,07	64000,00
1094,49	64000,00
1094,91	64000,00
1095,34	64000,00
1095,76	64000,00
1096,18	64000,00
1096,60	64000,00
1097,02	64000,00
1097,44	64000,00
1097,87	64000,00
1098,29	64000,00
1098,71	64000,00
1099,13	64000,00
1099,55	64000,00
1099,97	64000,00
1100,39	64000,00
1100,82	64000,00
1101,24	64000,00
1101,66	64000,00
1102,08	64000,00
1102,50	64000,00
1102,92	64000,00
1103,34	64000,00
1103,76	64000,00
1104,19	64000,00
1104,61	64000,00
1105,03	63106,00
1105,45	64000,00
1105,87	64000,00
1106,29	63369,00
1106,71	63448,80
1107,13	61359,80
1107,55	61108,60
1107,97	62445,00
1108,39	59132,00
1108,82	59573,60
1109,24	58393,20
1109,66	57406,00
1110,08	54655,20
1110,50	54867,60
1110,92	53537,80
1111,34	53756,40
1111,76	52909,60
1112,18	52809,60
1112,60	51922,80
1113,02	52224,00
1113,44	50422,40
1113,86	48563,20
1114,28	47995,80
1114,70	46963,20
1115,12	45065,60
1115,54	45311,80
1115,96	44061,60
1116,38	41468,80
1116,80	38983,20
1117,22	35814,00
1117,64	34387,60
1118,06	1514,20
1118,48	2297,40
1118,90	2206,00
1119,32	2203,60
>>>>>End Processed Spectral Data<<<<<
