SpectraSuite Data File
++++++++++++++++++++++++++++++++++++
Date: Tue May 29 13:11:16 EEST 2018
User: CanSEE
Dark Spectrum Present: No
Reference Spectrum Present: No
Number of Sampled Component Spectra: 1
Spectrometers: MAYP11278
Integration Time (usec): 230000 (MAYP11278)
Spectra Averaged: 1 (MAYP11278)
Boxcar Smoothing: 0 (MAYP11278)
Correct for Electrical Dark: No (MAYP11278)
Strobe/Lamp Enabled: No (MAYP11278)
Correct for Detector Non-linearity: No (MAYP11278)
Correct for Stray Light: No (MAYP11278)
Number of Pixels in Processed Spectrum: 2068
>>>>>Begin Processed Spectral Data<<<<<
187.82	2343.00
188.30	2239.00
188.78	2215.00
189.26	2212.00
189.73	3268.00
190.21	3411.00
190.69	3562.00
191.17	3555.00
191.64	3647.00
192.12	3560.00
192.60	3567.00
193.07	3534.00
193.55	3575.00
194.03	3541.00
194.51	3615.00
194.98	3577.00
195.46	3586.00
195.94	3565.00
196.42	3553.00
196.89	3663.00
197.37	3548.00
197.85	3524.00
198.32	3559.00
198.80	3543.00
199.28	3589.00
199.76	3636.00
200.23	3621.00
200.71	3589.00
201.19	3623.00
201.66	3610.00
202.14	3607.00
202.62	3550.00
203.09	3625.00
203.57	3567.00
204.05	3612.00
204.53	3635.00
205.00	3545.00
205.48	3550.00
205.96	3655.00
206.43	3554.00
206.91	3551.00
207.39	3679.00
207.86	3553.00
208.34	3627.00
208.82	3542.00
209.29	3612.00
209.77	3589.00
210.25	3575.00
210.72	3612.00
211.20	3574.00
211.68	3612.00
212.15	3579.00
212.63	3647.00
213.11	3585.00
213.58	3543.00
214.06	3669.00
214.53	3611.00
215.01	3633.00
215.49	3630.00
215.96	3585.00
216.44	3603.00
216.92	3591.00
217.39	3565.00
217.87	3631.00
218.35	3609.00
218.82	3515.00
219.30	3567.00
219.77	3603.00
220.25	3574.00
220.73	3655.00
221.20	3572.00
221.68	3585.00
222.15	3561.00
222.63	3613.00
223.11	3533.00
223.58	3651.00
224.06	3623.00
224.53	3529.00
225.01	3540.00
225.49	3560.00
225.96	3589.00
226.44	3527.00
226.91	3616.00
227.39	3606.00
227.87	3585.00
228.34	3573.00
228.82	3615.00
229.29	3601.00
229.77	3567.00
230.24	3571.00
230.72	3600.00
231.20	3598.00
231.67	3603.00
232.15	3573.00
232.62	3469.00
233.10	3532.00
233.57	3581.00
234.05	3734.00
234.53	3566.00
235.00	3580.00
235.48	3573.00
235.95	3544.00
236.43	3674.00
236.90	3671.00
237.38	3542.00
237.85	3613.00
238.33	3570.00
238.80	3574.00
239.28	3530.00
239.75	3513.00
240.23	3601.00
240.71	3608.00
241.18	3585.00
241.66	3560.00
242.13	3620.00
242.61	3648.00
243.08	3521.00
243.56	3555.00
244.03	3620.00
244.51	3683.00
244.98	3557.00
245.46	3632.00
245.93	4972.00
246.41	3519.00
246.88	3603.00
247.36	3604.00
247.83	3613.00
248.31	3579.00
248.78	3556.00
249.26	3633.00
249.73	3629.00
250.21	3563.00
250.68	3632.00
251.16	3594.00
251.63	3680.00
252.10	3609.00
252.58	3602.00
253.05	3651.00
253.53	3615.00
254.00	3575.00
254.48	3588.00
254.95	3661.00
255.43	3624.00
255.90	3593.00
256.38	3605.00
256.85	3644.00
257.33	3633.00
257.80	3751.00
258.27	3605.00
258.75	3627.00
259.22	3591.00
259.70	3589.00
260.17	3671.00
260.65	3622.00
261.12	3606.00
261.59	3686.00
262.07	3602.00
262.54	3607.00
263.02	3580.00
263.49	3540.00
263.97	3647.00
264.44	3641.00
264.91	3570.00
265.39	3646.00
265.86	3630.00
266.34	3643.00
266.81	3618.00
267.28	3559.00
267.76	3591.00
268.23	3652.00
268.71	3558.00
269.18	3543.00
269.65	3579.00
270.13	3620.00
270.60	3642.00
271.08	3589.00
271.55	3617.00
272.02	3573.00
272.50	3545.00
272.97	3536.00
273.44	3594.00
273.92	3731.00
274.39	3600.00
274.87	3620.00
275.34	3585.00
275.81	3565.00
276.29	3597.00
276.76	3613.00
277.23	3516.00
277.71	3543.00
278.18	3494.00
278.65	3658.00
279.13	3509.00
279.60	3571.00
280.07	3838.00
280.55	3816.00
281.02	3892.00
281.50	3650.00
281.97	3728.00
282.44	3693.00
282.91	3605.00
283.39	3652.00
283.86	3595.00
284.33	3577.00
284.81	3641.00
285.28	3641.00
285.75	3641.00
286.23	3672.00
286.70	3595.00
287.17	3666.00
287.65	3704.00
288.12	3616.00
288.59	3638.00
289.07	3549.00
289.54	3655.00
290.01	3584.00
290.48	3607.00
290.96	3552.00
291.43	3648.00
291.90	3689.00
292.38	3553.00
292.85	3660.00
293.32	3590.00
293.79	3667.00
294.27	3646.00
294.74	3619.00
295.21	3651.00
295.69	3657.00
296.16	3697.00
296.63	3708.00
297.10	3659.00
297.58	3625.00
298.05	3675.00
298.52	3595.00
298.99	3696.00
299.47	3631.00
299.94	3659.00
300.41	3570.00
300.88	3640.00
301.36	3662.00
301.83	3647.00
302.30	3600.00
302.77	3663.00
303.25	3651.00
303.72	3604.00
304.19	3607.00
304.66	3571.00
305.13	3634.00
305.61	3634.00
306.08	3640.00
306.55	3636.00
307.02	3593.00
307.49	3636.00
307.97	3595.00
308.44	3596.00
308.91	3658.00
309.38	3625.00
309.86	3634.00
310.33	3677.00
310.80	3635.00
311.27	3586.00
311.74	3633.00
312.21	3586.00
312.69	3730.00
313.16	3579.00
313.63	3616.00
314.10	3616.00
314.57	3607.00
315.05	3602.00
315.52	3672.00
315.99	3620.00
316.46	3653.00
316.93	3612.00
317.40	3578.00
317.88	3769.00
318.35	3606.00
318.82	3617.00
319.29	3612.00
319.76	3644.00
320.23	3701.00
320.70	3656.00
321.18	3623.00
321.65	3584.00
322.12	3610.00
322.59	3740.00
323.06	3603.00
323.53	3789.00
324.00	3590.00
324.48	3653.00
324.95	3662.00
325.42	3612.00
325.89	3707.00
326.36	3635.00
326.83	3677.00
327.30	3709.00
327.77	3701.00
328.24	3685.00
328.72	3607.00
329.19	3659.00
329.66	3635.00
330.13	3682.00
330.60	3732.00
331.07	3688.00
331.54	3737.00
332.01	3634.00
332.48	3742.00
332.95	3699.00
333.43	3709.00
333.90	3715.00
334.37	3703.00
334.84	3716.00
335.31	3816.00
335.78	3621.00
336.25	3671.00
336.72	3615.00
337.19	3625.00
337.66	3605.00
338.13	3677.00
338.60	3725.00
339.07	3665.00
339.54	3567.00
340.01	3593.00
340.49	3587.00
340.96	3620.00
341.43	3663.00
341.90	3565.00
342.37	3606.00
342.84	3601.00
343.31	3575.00
343.78	3560.00
344.25	3572.00
344.72	3516.00
345.19	3578.00
345.66	3630.00
346.13	3574.00
346.60	3567.00
347.07	3637.00
347.54	3540.00
348.01	3636.00
348.48	3572.00
348.95	3540.00
349.42	3635.00
349.89	3633.00
350.36	3601.00
350.83	3587.00
351.30	3628.00
351.77	3706.00
352.24	3611.00
352.71	3579.00
353.18	3596.00
353.65	3612.00
354.12	3577.00
354.59	3607.00
355.06	3615.00
355.53	3691.00
356.00	3585.00
356.47	3647.00
356.94	3567.00
357.41	3750.00
357.88	3612.00
358.35	3546.00
358.82	3536.00
359.28	3607.00
359.75	3577.00
360.22	3623.00
360.69	3681.00
361.16	3579.00
361.63	3575.00
362.10	3596.00
362.57	3654.00
363.04	3616.00
363.51	3720.00
363.98	3635.00
364.45	3593.00
364.92	3650.00
365.39	3615.00
365.86	3584.00
366.32	3633.00
366.79	3615.00
367.26	4888.00
367.73	3945.00
368.20	3585.00
368.67	3695.00
369.14	3597.00
369.61	3717.00
370.08	3639.00
370.55	3599.00
371.02	4508.00
371.48	3633.00
371.95	3660.00
372.42	3583.00
372.89	3628.00
373.36	3643.00
373.83	3601.00
374.30	3595.00
374.77	3642.00
375.23	3566.00
375.70	3693.00
376.17	3612.00
376.64	3554.00
377.11	3581.00
377.58	3673.00
378.05	3629.00
378.51	3649.00
378.98	3671.00
379.45	3619.00
379.92	3678.00
380.39	3767.00
380.86	3618.00
381.33	3708.00
381.79	3690.00
382.26	3577.00
382.73	3650.00
383.20	3653.00
383.67	3660.00
384.14	3647.00
384.60	3847.00
385.07	3656.00
385.54	3641.00
386.01	3625.00
386.48	3704.00
386.94	3597.00
387.41	3597.00
387.88	3665.00
388.35	3627.00
388.82	3721.00
389.28	3627.00
389.75	3675.00
390.22	3683.00
390.69	3675.00
391.16	3622.00
391.62	3653.00
392.09	3630.00
392.56	3627.00
393.03	3622.00
393.50	3748.00
393.96	3636.00
394.43	3681.00
394.90	3590.00
395.37	3656.00
395.83	3862.00
396.30	3621.00
396.77	3683.00
397.24	3689.00
397.70	3616.00
398.17	3655.00
398.64	3625.00
399.11	3633.00
399.57	3720.00
400.04	3616.00
400.51	3665.00
400.98	3650.00
401.44	3686.00
401.91	3651.00
402.38	3656.00
402.84	3640.00
403.31	3774.00
403.78	3687.00
404.25	3756.00
404.71	3747.00
405.18	3755.00
405.65	3652.00
406.12	3711.00
406.58	3708.00
407.05	3789.00
407.52	3741.00
407.98	4247.00
408.45	3744.00
408.92	3678.00
409.38	3800.00
409.85	3694.00
410.32	3761.00
410.78	3758.00
411.25	3818.00
411.72	3730.00
412.18	3723.00
412.65	3822.00
413.12	3808.00
413.59	3843.00
414.05	3847.00
414.52	3949.00
414.98	3826.00
415.45	3937.00
415.92	3880.00
416.38	3879.00
416.85	3970.00
417.32	3915.00
417.78	3905.00
418.25	3937.00
418.72	3943.00
419.18	3965.00
419.65	3892.00
420.12	3982.00
420.58	4007.00
421.05	4015.00
421.51	3993.00
421.98	4124.00
422.45	4026.00
422.91	4002.00
423.38	4113.00
423.85	4086.00
424.31	4082.00
424.78	4112.00
425.24	4092.00
425.71	4160.00
426.18	4151.00
426.64	4174.00
427.11	4169.00
427.57	4201.00
428.04	4108.00
428.51	4225.00
428.97	4131.00
429.44	4112.00
429.90	4093.00
430.37	4247.00
430.83	4097.00
431.30	4199.00
431.77	4380.00
432.23	4295.00
432.70	4305.00
433.16	4256.00
433.63	4287.00
434.09	4269.00
434.56	4377.00
435.03	4353.00
435.49	4418.00
435.96	4463.00
436.42	4423.00
436.89	4504.00
437.35	4424.00
437.82	4399.00
438.28	4333.00
438.75	4462.00
439.21	4677.00
439.68	4506.00
440.14	4526.00
440.61	4638.00
441.07	4553.00
441.54	4613.00
442.00	4743.00
442.47	4601.00
442.94	4649.00
443.40	4693.00
443.87	4690.00
444.33	4823.00
444.80	4774.00
445.26	4695.00
445.73	4663.00
446.19	4760.00
446.65	4754.00
447.12	4828.00
447.58	4836.00
448.05	4818.00
448.51	4881.00
448.98	4902.00
449.44	4899.00
449.91	4967.00
450.37	4998.00
450.84	5000.00
451.30	5021.00
451.77	5041.00
452.23	4937.00
452.70	4961.00
453.16	5005.00
453.62	5065.00
454.09	4967.00
454.55	5060.00
455.02	5045.00
455.48	5131.00
455.95	5146.00
456.41	5139.00
456.88	5183.00
457.34	5179.00
457.80	5123.00
458.27	5055.00
458.73	5143.00
459.20	5222.00
459.66	5181.00
460.13	5189.00
460.59	5136.00
461.05	5327.00
461.52	5226.00
461.98	5196.00
462.45	5261.00
462.91	5267.00
463.37	5219.00
463.84	5152.00
464.30	5227.00
464.76	5125.00
465.23	5185.00
465.69	5259.00
466.16	5155.00
466.62	5168.00
467.08	5178.00
467.55	5231.00
468.01	5233.00
468.48	5260.00
468.94	5260.00
469.40	5193.00
469.87	5243.00
470.33	5192.00
470.79	5176.00
471.26	5275.00
471.72	5267.00
472.18	5308.00
472.65	5273.00
473.11	5431.00
473.57	5284.00
474.04	5348.00
474.50	5369.00
474.96	5321.00
475.43	5353.00
475.89	5343.00
476.35	5375.00
476.82	5333.00
477.28	5403.00
477.74	5566.00
478.21	5439.00
478.67	5519.00
479.13	5460.00
479.59	5574.00
480.06	5533.00
480.52	5505.00
480.98	5531.00
481.45	5615.00
481.91	5483.00
482.37	5503.00
482.84	5544.00
483.30	5456.00
483.76	5545.00
484.22	5577.00
484.69	5464.00
485.15	5352.00
485.61	5180.00
486.07	5228.00
486.54	5225.00
487.00	5420.00
487.46	5461.00
487.92	5497.00
488.39	5503.00
488.85	5536.00
489.31	5621.00
489.77	5781.00
490.24	5632.00
490.70	5708.00
491.16	5618.00
491.62	5517.00
492.09	5553.00
492.55	5831.00
493.01	5776.00
493.47	5841.00
493.94	5841.00
494.40	5865.00
494.86	5880.00
495.32	5967.00
495.78	5995.00
496.25	6037.00
496.71	6062.00
497.17	6153.00
497.63	6093.00
498.09	6016.00
498.56	6145.00
499.02	6189.00
499.48	6334.00
499.94	6241.00
500.40	6236.00
500.87	6276.00
501.33	6329.00
501.79	6513.00
502.25	6551.00
502.71	6833.00
503.17	6673.00
503.64	6728.00
504.10	6770.00
504.56	6954.00
505.02	7088.00
505.48	7194.00
505.94	7291.00
506.40	7377.00
506.87	7401.00
507.33	7505.00
507.79	7566.00
508.25	7703.00
508.71	7849.00
509.17	8001.00
509.63	8145.00
510.10	8268.00
510.56	8340.00
511.02	8643.00
511.48	8855.00
511.94	8768.00
512.40	8787.00
512.86	8988.00
513.32	9134.00
513.78	9183.00
514.25	9477.00
514.71	10279.00
515.17	9781.00
515.63	10087.00
516.09	9988.00
516.55	9667.00
517.01	9964.00
517.47	10381.00
517.93	10585.00
518.39	10938.00
518.85	11286.00
519.32	11623.00
519.78	12191.00
520.24	12250.00
520.70	12548.00
521.16	13143.00
521.62	13409.00
522.08	13478.00
522.54	13453.00
523.00	13945.00
523.46	14464.00
523.92	14997.00
524.38	15236.00
524.84	15357.00
525.30	15612.00
525.76	15529.00
526.22	15037.00
526.68	15025.00
527.14	15591.00
527.60	16326.00
528.06	16855.00
528.52	17441.00
528.98	17685.00
529.44	17577.00
529.90	17811.00
530.36	18425.00
530.82	18726.00
531.28	18867.00
531.74	18711.00
532.20	18291.00
532.66	18209.00
533.12	18893.00
533.58	19210.00
534.04	19274.00
534.50	19649.00
534.96	19989.00
535.42	20493.00
535.88	20320.00
536.34	19997.00
536.80	19930.00
537.26	20431.00
537.72	20831.00
538.18	20735.00
538.64	20845.00
539.10	20808.00
539.56	20715.00
540.02	20228.00
540.48	20583.00
540.94	20711.00
541.40	21175.00
541.86	21445.00
542.32	21508.00
542.78	21495.00
543.24	21712.00
543.69	21996.00
544.15	22241.00
544.61	22268.00
545.07	22199.00
545.53	22375.00
545.99	22691.00
546.45	22473.00
546.91	22799.00
547.37	22373.00
547.83	22629.00
548.29	22978.00
548.74	23240.00
549.20	23105.00
549.66	23520.00
550.12	23425.00
550.58	23438.00
551.04	23564.00
551.50	23738.00
551.96	23853.00
552.42	23698.00
552.87	23568.00
553.33	23905.00
553.79	24058.00
554.25	23858.00
554.71	24299.00
555.17	24183.00
555.63	24257.00
556.08	23940.00
556.54	23644.00
557.00	23434.00
557.46	23582.00
557.92	23775.00
558.38	23131.00
558.83	22785.00
559.29	23091.00
559.75	23133.00
560.21	23401.00
560.67	23841.00
561.13	23569.00
561.58	22985.00
562.04	23155.00
562.50	23253.00
562.96	23244.00
563.42	22869.00
563.87	22904.00
564.33	22962.00
564.79	22890.00
565.25	22365.00
565.71	21981.00
566.16	22035.00
566.62	22157.00
567.08	22124.00
567.54	21973.00
568.00	21591.00
568.45	21215.00
568.91	21161.00
569.37	21213.00
569.83	20964.00
570.28	20778.00
570.74	20281.00
571.20	20343.00
571.66	20438.00
572.11	20491.00
572.57	20508.00
573.03	20363.00
573.49	20144.00
573.94	20071.00
574.40	19862.00
574.86	19540.00
575.32	19204.00
575.77	19243.00
576.23	18992.00
576.69	19327.00
577.15	18962.00
577.60	18827.00
578.06	18344.00
578.52	18433.00
578.97	18449.00
579.43	18449.00
579.89	18443.00
580.34	18455.00
580.80	18338.00
581.26	18245.00
581.72	18227.00
582.17	18299.00
582.63	18243.00
583.09	18182.00
583.54	18094.00
584.00	18159.00
584.46	17977.00
584.91	17570.00
585.37	17507.00
585.83	17147.00
586.28	17366.00
586.74	17431.00
587.20	17431.00
587.65	17184.00
588.11	16887.00
588.57	16097.00
589.02	15394.00
589.48	15603.00
589.94	16139.00
590.39	16547.00
590.85	16481.00
591.30	16469.00
591.76	16443.00
592.22	16350.00
592.67	16361.00
593.13	16332.00
593.59	16524.00
594.04	16210.00
594.50	16128.00
594.95	16175.00
595.41	16198.00
595.87	16293.00
596.32	16295.00
596.78	16384.00
597.23	16280.00
597.69	16094.00
598.15	15945.00
598.60	16148.00
599.06	16326.00
599.51	16139.00
599.97	16146.00
600.43	16007.00
600.88	16044.00
601.34	15934.00
601.79	15725.00
602.25	15869.00
602.70	15801.00
603.16	16014.00
603.61	15885.00
604.07	15823.00
604.53	15922.00
604.98	15764.00
605.44	15796.00
605.89	15600.00
606.35	15633.00
606.80	15421.00
607.26	15424.00
607.71	15285.00
608.17	15045.00
608.62	14931.00
609.08	15095.00
609.53	14814.00
609.99	14725.00
610.44	14689.00
610.90	14601.00
611.35	14559.00
611.81	14494.00
612.26	14315.00
612.72	14263.00
613.17	14366.00
613.63	13875.00
614.08	13919.00
614.54	13887.00
614.99	13882.00
615.45	13641.00
615.90	13558.00
616.36	13321.00
616.81	13351.00
617.27	13375.00
617.72	13577.00
618.18	13419.00
618.63	13470.00
619.09	13340.00
619.54	13501.00
619.99	13465.00
620.45	13506.00
620.90	13400.00
621.36	13131.00
621.81	13109.00
622.27	13236.00
622.72	13082.00
623.18	12923.00
623.63	12880.00
624.08	12901.00
624.54	12834.00
624.99	12783.00
625.45	12710.00
625.90	12734.00
626.35	12967.00
626.81	12973.00
627.26	12755.00
627.72	12536.00
628.17	12649.00
628.62	12695.00
629.08	12747.00
629.53	12718.00
629.99	12717.00
630.44	12623.00
630.89	12780.00
631.35	12547.00
631.80	12558.00
632.26	12638.00
632.71	12770.00
633.16	12726.00
633.62	12568.00
634.07	12664.00
634.52	12646.00
634.98	12687.00
635.43	12589.00
635.88	12457.00
636.34	12424.00
636.79	12377.00
637.24	12511.00
637.70	12465.00
638.15	12319.00
638.60	12184.00
639.06	12070.00
639.51	11876.00
639.96	11678.00
640.42	11729.00
640.87	11588.00
641.32	11453.00
641.78	11393.00
642.23	11343.00
642.68	11200.00
643.14	11121.00
643.59	11103.00
644.04	10845.00
644.49	10782.00
644.95	10530.00
645.40	10489.00
645.85	10331.00
646.31	10155.00
646.76	10243.00
647.21	10035.00
647.66	9990.00
648.12	9870.00
648.57	9747.00
649.02	9708.00
649.47	9493.00
649.93	9757.00
650.38	9677.00
650.83	9581.00
651.28	9494.00
651.74	9329.00
652.19	9450.00
652.64	9410.00
653.09	9356.00
653.55	9316.00
654.00	9301.00
654.45	9204.00
654.90	8994.00
655.35	8739.00
655.81	8423.00
656.26	7961.00
656.71	8236.00
657.16	8478.00
657.62	8651.00
658.07	8595.00
658.52	8565.00
658.97	8423.00
659.42	8642.00
659.88	8389.00
660.33	8421.00
660.78	8189.00
661.23	8152.00
661.68	8107.00
662.13	7975.00
662.59	7814.00
663.04	7822.00
663.49	7675.00
663.94	7618.00
664.39	7491.00
664.84	7435.00
665.30	7362.00
665.75	7285.00
666.20	7209.00
666.65	7214.00
667.10	7191.00
667.55	7083.00
668.00	6966.00
668.46	7058.00
668.91	6971.00
669.36	6949.00
669.81	6761.00
670.26	6866.00
670.71	6786.00
671.16	6746.00
671.61	6709.00
672.06	6694.00
672.52	6642.00
672.97	6615.00
673.42	6695.00
673.87	6732.00
674.32	6573.00
674.77	6617.00
675.22	6468.00
675.67	6573.00
676.12	6585.00
676.57	6515.00
677.02	6511.00
677.47	6555.00
677.93	6693.00
678.38	6535.00
678.83	6450.00
679.28	6568.00
679.73	6587.00
680.18	6624.00
680.63	6654.00
681.08	6600.00
681.53	6681.00
681.98	6767.00
682.43	6749.00
682.88	6876.00
683.33	6901.00
683.78	6855.00
684.23	7101.00
684.68	7130.00
685.13	7271.00
685.58	7384.00
686.03	7377.00
686.48	7168.00
686.93	6961.00
687.38	7017.00
687.83	7563.00
688.28	7909.00
688.73	8309.00
689.18	8389.00
689.63	8571.00
690.08	9063.00
690.53	9509.00
690.98	9903.00
691.43	10517.00
691.88	10864.00
692.33	11528.00
692.78	12015.00
693.23	12447.00
693.68	12903.00
694.13	13325.00
694.58	14004.00
695.03	15013.00
695.48	15651.00
695.93	16431.00
696.38	17211.00
696.83	18184.00
697.28	18683.00
697.72	19089.00
698.17	19803.00
698.62	20467.00
699.07	21091.00
699.52	21789.00
699.97	22557.00
700.42	23245.00
700.87	24000.00
701.32	24781.00
701.77	25120.00
702.22	25890.00
702.67	26552.00
703.11	27754.00
703.56	28462.00
704.01	29133.00
704.46	30120.00
704.91	31017.00
705.36	31436.00
705.81	32020.00
706.26	32565.00
706.70	33149.00
707.15	34087.00
707.60	34624.00
708.05	35375.00
708.50	35955.00
708.95	36571.00
709.40	36892.00
709.84	37613.00
710.29	37991.00
710.74	38348.00
711.19	38910.00
711.64	39517.00
712.09	39971.00
712.53	40546.00
712.98	40878.00
713.43	41487.00
713.88	41940.00
714.33	42023.00
714.78	41897.00
715.22	42449.00
715.67	42502.00
716.12	42128.00
716.57	40663.00
717.02	39142.00
717.46	38261.00
717.91	37933.00
718.36	36922.00
718.81	36745.00
719.26	36982.00
719.70	37547.00
720.15	38371.00
720.60	39935.00
721.05	42910.00
721.49	44621.00
721.94	45621.00
722.39	45459.00
722.84	44607.00
723.28	42981.00
723.73	42159.00
724.18	42267.00
724.63	43253.00
725.07	43333.00
725.52	44166.00
725.97	44668.00
726.42	45123.00
726.86	45809.00
727.31	45157.00
727.76	45200.00
728.21	46365.00
728.65	46268.00
729.10	45710.00
729.55	47098.00
729.99	47941.00
730.44	48273.00
730.89	48936.00
731.33	49748.00
731.78	50760.00
732.23	52201.00
732.68	52940.00
733.12	53525.00
733.57	54631.00
734.02	55349.00
734.46	55881.00
734.91	56070.00
735.36	55956.00
735.80	56542.00
736.25	56614.00
736.70	56959.00
737.14	57592.00
737.59	58045.00
738.04	57573.00
738.48	57354.00
738.93	57298.00
739.37	57869.00
739.82	58670.00
740.27	58979.00
740.71	58965.00
741.16	58887.00
741.61	58963.00
742.05	59148.00
742.50	59821.00
742.94	60154.00
743.39	60303.00
743.84	60303.00
744.28	60252.00
744.73	60340.00
745.18	61080.00
745.62	61166.00
746.07	61362.00
746.51	61150.00
746.96	61182.00
747.40	60789.00
747.85	60779.00
748.30	60714.00
748.74	60305.00
749.19	60261.00
749.63	60525.00
750.08	60857.00
750.52	60525.00
750.97	60211.00
751.42	60395.00
751.86	60488.00
752.31	60138.00
752.75	60120.00
753.20	60007.00
753.64	60128.00
754.09	60473.00
754.53	60557.00
754.98	60446.00
755.42	60190.00
755.87	60234.00
756.31	59915.00
756.76	59395.00
757.20	59030.00
757.65	58307.00
758.09	57666.00
758.54	55895.00
758.98	50046.00
759.43	39332.00
759.87	27662.00
760.32	20746.00
760.76	20366.00
761.21	25373.00
761.65	31153.00
762.10	33013.00
762.54	31028.00
762.99	29611.00
763.43	30281.00
763.88	32297.00
764.32	35274.00
764.77	38398.00
765.21	41356.00
765.66	44052.00
766.10	46254.00
766.54	48721.00
766.99	50988.00
767.43	52509.00
767.88	54014.00
768.32	55302.00
768.77	55826.00
769.21	56693.00
769.66	57350.00
770.10	58103.00
770.54	58638.00
770.99	58567.00
771.43	58280.00
771.88	58221.00
772.32	58144.00
772.76	58030.00
773.21	58182.00
773.65	57901.00
774.10	57545.00
774.54	57467.00
774.98	57821.00
775.43	58340.00
775.87	58784.00
776.31	58940.00
776.76	58854.00
777.20	58408.00
777.65	58083.00
778.09	57715.00
778.53	57470.00
778.98	57320.00
779.42	57313.00
779.86	57226.00
780.31	57058.00
780.75	57402.00
781.19	57723.00
781.64	57864.00
782.08	57847.00
782.52	57726.00
782.97	56977.00
783.41	56792.00
783.85	56222.00
784.30	56097.00
784.74	55658.00
785.18	55697.00
785.63	55454.00
786.07	55675.00
786.51	55984.00
786.95	56024.00
787.40	55938.00
787.84	55628.00
788.28	55144.00
788.73	54768.00
789.17	54157.00
789.61	53668.00
790.05	53131.00
790.50	52916.00
790.94	52881.00
791.38	52815.00
791.82	52967.00
792.27	53037.00
792.71	53165.00
793.15	53454.00
793.59	53274.00
794.04	53002.00
794.48	52609.00
794.92	51909.00
795.36	51810.00
795.81	51098.00
796.25	51076.00
796.69	51483.00
797.13	51937.00
797.57	52636.00
798.02	52681.00
798.46	52796.00
798.90	52886.00
799.34	52187.00
799.79	51714.00
800.23	50862.00
800.67	50383.00
801.11	50329.00
801.55	49971.00
801.99	49756.00
802.44	49975.00
802.88	50313.00
803.32	50709.00
803.76	50769.00
804.20	51053.00
804.64	50964.00
805.09	50850.00
805.53	50759.00
805.97	50446.00
806.41	49794.00
806.85	49527.00
807.29	48852.00
807.74	48671.00
808.18	48825.00
808.62	48811.00
809.06	48737.00
809.50	48746.00
809.94	48738.00
810.38	48876.00
810.82	48899.00
811.27	48661.00
811.71	47574.00
812.15	46810.00
812.59	45410.00
813.03	44461.00
813.47	42687.00
813.91	41930.00
814.35	41058.00
814.79	40986.00
815.23	40528.00
815.67	39820.00
816.12	40076.00
816.56	39937.00
817.00	40158.00
817.44	40757.00
817.88	40515.00
818.32	39906.00
818.76	40188.00
819.20	40156.00
819.64	40485.00
820.08	41096.00
820.52	42035.00
820.96	43087.00
821.40	42050.00
821.84	40694.00
822.28	38646.00
822.72	38184.00
823.16	38149.00
823.60	39903.00
824.04	42825.00
824.48	43595.00
824.92	43429.00
825.36	43447.00
825.80	42547.00
826.24	42297.00
826.68	41977.00
827.12	41789.00
827.56	40963.00
828.00	41014.00
828.44	41362.00
828.88	42004.00
829.32	42285.00
829.76	42453.00
830.20	43252.00
830.64	42621.00
831.08	42088.00
831.52	41744.00
831.96	41274.00
832.40	40661.00
832.84	41082.00
833.28	41557.00
833.72	42410.00
834.16	43093.00
834.60	44058.00
835.04	44825.00
835.48	45082.00
835.91	45088.00
836.35	44796.00
836.79	44404.00
837.23	44316.00
837.67	43513.00
838.11	43157.00
838.55	43704.00
838.99	43376.00
839.43	43924.00
839.87	44553.00
840.30	45015.00
840.74	45557.00
841.18	46090.00
841.62	46250.00
842.06	46301.00
842.50	45891.00
842.94	45470.00
843.38	44758.00
843.81	44020.00
844.25	43613.00
844.69	43356.00
845.13	43130.00
845.57	43523.00
846.01	43609.00
846.45	44066.00
846.88	44531.00
847.32	45018.00
847.76	45519.00
848.20	45619.00
848.64	45234.00
849.08	44357.00
849.51	44386.00
849.95	43170.00
850.39	43146.00
850.83	43662.00
851.27	43326.00
851.70	42709.00
852.14	42663.00
852.58	41721.00
853.02	40335.00
853.46	39138.00
853.89	39052.00
854.33	39093.00
854.77	40909.00
855.21	43697.00
855.65	44607.00
856.08	45468.00
856.52	45254.00
856.96	45145.00
857.40	44525.00
857.83	43379.00
858.27	42708.00
858.71	41885.00
859.15	41953.00
859.58	42111.00
860.02	42488.00
860.46	42960.00
860.89	43920.00
861.33	44292.00
861.77	44824.00
862.21	45427.00
862.64	45326.00
863.08	45322.00
863.52	44805.00
863.95	43944.00
864.39	43080.00
864.83	41516.00
865.27	39692.00
865.70	39389.00
866.14	38500.00
866.58	38613.00
867.01	40599.00
867.45	41938.00
867.89	42768.00
868.32	43787.00
868.76	44218.00
869.20	44387.00
869.63	44431.00
870.07	43651.00
870.51	42708.00
870.94	41848.00
871.38	41108.00
871.82	40282.00
872.25	39919.00
872.69	40002.00
873.13	40213.00
873.56	40810.00
874.00	41306.00
874.43	41778.00
874.87	42531.00
875.31	42832.00
875.74	43125.00
876.18	43332.00
876.61	43349.00
877.05	42889.00
877.49	42168.00
877.92	41583.00
878.36	40974.00
878.79	40331.00
879.23	39283.00
879.67	38939.00
880.10	39161.00
880.54	38949.00
880.97	39290.00
881.41	40795.00
881.84	41743.00
882.28	42380.00
882.72	42966.00
883.15	43570.00
883.59	43667.00
884.02	43303.00
884.46	43072.00
884.89	42273.00
885.33	41397.00
885.76	40134.00
886.20	39544.00
886.63	38777.00
887.07	38414.00
887.50	38805.00
887.94	38880.00
888.37	39115.00
888.81	40038.00
889.24	40442.00
889.68	40529.00
890.11	41204.00
890.55	41447.00
890.98	41851.00
891.42	42017.00
891.85	41522.00
892.29	41297.00
892.72	40207.00
893.16	39070.00
893.59	37891.00
894.03	36728.00
894.46	35515.00
894.90	34127.00
895.33	32706.00
895.77	33050.00
896.20	32767.00
896.63	32749.00
897.07	32952.00
897.50	32431.00
897.94	32917.00
898.37	34069.00
898.81	32030.00
899.24	31949.00
899.68	33720.00
900.11	32848.00
900.54	31982.00
900.98	31588.00
901.41	31146.00
901.85	31443.00
902.28	31877.00
902.71	32128.00
903.15	33032.00
903.58	34228.00
904.02	34190.00
904.45	34274.00
904.88	34053.00
905.32	33835.00
905.75	33664.00
906.18	32484.00
906.62	32761.00
907.05	32061.00
907.48	32170.00
907.92	31785.00
908.35	31709.00
908.79	31152.00
909.22	31058.00
909.65	30309.00
910.09	30432.00
910.52	29687.00
910.95	30164.00
911.38	30393.00
911.82	29174.00
912.25	29872.00
912.68	30363.00
913.12	30190.00
913.55	30523.00
913.98	31435.00
914.42	32800.00
914.85	32774.00
915.28	31463.00
915.72	31146.00
916.15	30724.00
916.58	30801.00
917.01	29929.00
917.45	28999.00
917.88	29903.00
918.31	30163.00
918.74	31480.00
919.18	31806.00
919.61	31805.00
920.04	32566.00
920.47	32944.00
920.91	33089.00
921.34	32908.00
921.77	33231.00
922.20	33839.00
922.64	33442.00
923.07	33413.00
923.50	32887.00
923.93	32403.00
924.37	31842.00
924.80	31482.00
925.23	31099.00
925.66	29908.00
926.09	28388.00
926.53	27762.00
926.96	26849.00
927.39	25754.00
927.82	24347.00
928.25	23335.00
928.69	22756.00
929.12	22478.00
929.55	21318.00
929.98	20473.00
930.41	19379.00
930.84	18274.00
931.28	17033.00
931.71	15577.00
932.14	13925.00
932.57	13369.00
933.00	12841.00
933.43	12178.00
933.86	11434.00
934.30	10912.00
934.73	12411.00
935.16	11706.00
935.59	11035.00
936.02	11749.00
936.45	11419.00
936.88	11443.00
937.31	12693.00
937.75	13157.00
938.18	13993.00
938.61	14526.00
939.04	15427.00
939.47	15093.00
939.90	13970.00
940.33	13553.00
940.76	12547.00
941.19	11945.00
941.62	11678.00
942.05	11591.00
942.48	10312.00
942.91	10399.00
943.35	11113.00
943.78	10193.00
944.21	10238.00
944.64	11172.00
945.07	11394.00
945.50	11187.00
945.93	11353.00
946.36	11827.00
946.79	12294.00
947.22	12972.00
947.65	12568.00
948.08	12033.00
948.51	12995.00
948.94	13355.00
949.37	12643.00
949.80	12053.00
950.23	12430.00
950.66	12932.00
951.09	12895.00
951.52	12317.00
951.95	12574.00
952.38	12879.00
952.81	13732.00
953.24	14471.00
953.67	14751.00
954.10	14425.00
954.53	15229.00
954.96	14978.00
955.39	15484.00
955.82	16512.00
956.25	15802.00
956.68	16206.00
957.11	16592.00
957.53	15981.00
957.96	15748.00
958.39	15554.00
958.82	14813.00
959.25	15392.00
959.68	16203.00
960.11	16403.00
960.54	16583.00
960.97	17650.00
961.40	18095.00
961.83	17933.00
962.26	18245.00
962.68	19817.00
963.11	20105.00
963.54	20135.00
963.97	20414.00
964.40	20407.00
964.83	20943.00
965.26	21141.00
965.69	20791.00
966.11	20588.00
966.54	20733.00
966.97	21813.00
967.40	21883.00
967.83	21963.00
968.26	21960.00
968.69	22223.00
969.11	22345.00
969.54	22067.00
969.97	22365.00
970.40	22769.00
970.83	22594.00
971.26	23004.00
971.68	22926.00
972.11	23066.00
972.54	23551.00
972.97	23248.00
973.40	22961.00
973.82	22811.00
974.25	22925.00
974.68	22680.00
975.11	22287.00
975.54	21900.00
975.96	21589.00
976.39	21625.00
976.82	21675.00
977.25	21347.00
977.67	21365.00
978.10	21533.00
978.53	21633.00
978.96	22438.00
979.38	22695.00
979.81	23058.00
980.24	23994.00
980.67	24517.00
981.09	24647.00
981.52	24752.00
981.95	24807.00
982.38	25071.00
982.80	25134.00
983.23	25625.00
983.66	25591.00
984.08	25367.00
984.51	25068.00
984.94	24784.00
985.37	24628.00
985.79	24018.00
986.22	23501.00
986.65	23274.00
987.07	23017.00
987.50	22907.00
987.93	22905.00
988.35	23061.00
988.78	23352.00
989.21	23518.00
989.63	23928.00
990.06	24133.00
990.49	24616.00
990.91	24853.00
991.34	25031.00
991.77	25203.00
992.19	25275.00
992.62	25059.00
993.05	25093.00
993.47	24748.00
993.90	24400.00
994.32	24039.00
994.75	23698.00
995.18	23319.00
995.60	23076.00
996.03	22478.00
996.45	22424.00
996.88	22256.00
997.31	22074.00
997.73	22143.00
998.16	21949.00
998.58	22270.00
999.01	22285.00
999.44	22563.00
999.86	23150.00
1000.29	23103.00
1000.71	23309.00
1001.14	23395.00
1001.56	23330.00
1001.99	23092.00
1002.41	22734.00
1002.84	22365.00
1003.27	22021.00
1003.69	21621.00
1004.12	20983.00
1004.54	20535.00
1004.97	20355.00
1005.39	20227.00
1005.82	19956.00
1006.24	19827.00
1006.67	19681.00
1007.09	19748.00
1007.52	19653.00
1007.94	19689.00
1008.37	19898.00
1008.79	19738.00
1009.22	19888.00
1009.64	19906.00
1010.07	20210.00
1010.49	20197.00
1010.92	20081.00
1011.34	20269.00
1011.77	20157.00
1012.19	20167.00
1012.62	19886.00
1013.04	19517.00
1013.46	19275.00
1013.89	18812.00
1014.31	18498.00
1014.74	18047.00
1015.16	17932.00
1015.59	17759.00
1016.01	17774.00
1016.44	17692.00
1016.86	18967.00
1017.28	17951.00
1017.71	18017.00
1018.13	18425.00
1018.56	18535.00
1018.98	18610.00
1019.40	18639.00
1019.83	18753.00
1020.25	18980.00
1020.68	19088.00
1021.10	19224.00
1021.52	19337.00
1021.95	19678.00
1022.37	19509.00
1022.79	19305.00
1023.22	19158.00
1023.64	19010.00
1024.07	18667.00
1024.49	18404.00
1024.91	18070.00
1025.34	18001.00
1025.76	17910.00
1026.18	17628.00
1026.61	17541.00
1027.03	17435.00
1027.45	17422.00
1027.88	17546.00
1028.30	17648.00
1028.72	17741.00
1029.15	17862.00
1029.57	17861.00
1029.99	18007.00
1030.41	17854.00
1030.84	17857.00
1031.26	17896.00
1031.68	17668.00
1032.11	17554.00
1032.53	17454.00
1032.95	17201.00
1033.37	16791.00
1033.80	16684.00
1034.22	16259.00
1034.64	16082.00
1035.06	15758.00
1035.49	15558.00
1035.91	15374.00
1036.33	15169.00
1036.75	15148.00
1037.18	15068.00
1037.60	14940.00
1038.02	14856.00
1038.44	14967.00
1038.87	14851.00
1039.29	14985.00
1039.71	15040.00
1040.13	15009.00
1040.55	15173.00
1040.98	15122.00
1041.40	14859.00
1041.82	14836.00
1042.24	14649.00
1042.66	14499.00
1043.09	14267.00
1043.51	14052.00
1043.93	13804.00
1044.35	13498.00
1044.77	13460.00
1045.20	13326.00
1045.62	13071.00
1046.04	12972.00
1046.46	12759.00
1046.88	12656.00
1047.30	12477.00
1047.72	12262.00
1048.15	12535.00
1048.57	12210.00
1048.99	12256.00
1049.41	12155.00
1049.83	12185.00
1050.25	12246.00
1050.67	12145.00
1051.09	11998.00
1051.52	11945.00
1051.94	11912.00
1052.36	11883.00
1052.78	11774.00
1053.20	11725.00
1053.62	11669.00
1054.04	11412.00
1054.46	11426.00
1054.88	11405.00
1055.30	11169.00
1055.72	11103.00
1056.14	10882.00
1056.57	10853.00
1056.99	10477.00
1057.41	10509.00
1057.83	10311.00
1058.25	10254.00
1058.67	10094.00
1059.09	9934.00
1059.51	9876.00
1059.93	9790.00
1060.35	9817.00
1060.77	9689.00
1061.19	9678.00
1061.61	9533.00
1062.03	9569.00
1062.45	9402.00
1062.87	9448.00
1063.29	9319.00
1063.71	9327.00
1064.13	9360.00
1064.55	9199.00
1064.97	9239.00
1065.39	9103.00
1065.81	9073.00
1066.23	9033.00
1066.65	8980.00
1067.07	8884.00
1067.49	8647.00
1067.91	8617.00
1068.33	8470.00
1068.75	8391.00
1069.17	8366.00
1069.59	8327.00
1070.00	8217.00
1070.42	8133.00
1070.84	7992.00
1071.26	7958.00
1071.68	7900.00
1072.10	7862.00
1072.52	7872.00
1072.94	7773.00
1073.36	7799.00
1073.78	7727.00
1074.20	7815.00
1074.62	7776.00
1075.03	7614.00
1075.45	7663.00
1075.87	7754.00
1076.29	7677.00
1076.71	7657.00
1077.13	7628.00
1077.55	7457.00
1077.97	7361.00
1078.38	7369.00
1078.80	7290.00
1079.22	7186.00
1079.64	7110.00
1080.06	6979.00
1080.48	7002.00
1080.89	6859.00
1081.31	6777.00
1081.73	6866.00
1082.15	6757.00
1082.57	6760.00
1082.99	6675.00
1083.40	6573.00
1083.82	6635.00
1084.24	6509.00
1084.66	6442.00
1085.08	6510.00
1085.49	6394.00
1085.91	6486.00
1086.33	7716.00
1086.75	6409.00
1087.17	6411.00
1087.58	6328.00
1088.00	6321.00
1088.42	6305.00
1088.84	6160.00
1089.25	6123.00
1089.67	6159.00
1090.09	6031.00
1090.51	5947.00
1090.92	5923.00
1091.34	5816.00
1091.76	5811.00
1092.18	5694.00
1092.59	5686.00
1093.01	5671.00
1093.43	5588.00
1093.84	5495.00
1094.26	5501.00
1094.68	5475.00
1095.10	5419.00
1095.51	5460.00
1095.93	5313.00
1096.35	5426.00
1096.76	5337.00
1097.18	5325.00
1097.60	5260.00
1098.01	5237.00
1098.43	5188.00
1098.85	5159.00
1099.26	5040.00
1099.68	5070.00
1100.10	4915.00
1100.51	4935.00
1100.93	4798.00
1101.35	4814.00
1101.76	4800.00
1102.18	5213.00
1102.60	4764.00
1103.01	4622.00
1103.43	4695.00
1103.84	4691.00
1104.26	4569.00
1104.68	4633.00
1105.09	4514.00
1105.51	4499.00
1105.92	4587.00
1106.34	4419.00
1106.76	4478.00
1107.17	4395.00
1107.59	4328.00
1108.00	4215.00
1108.42	4240.00
1108.83	4168.00
1109.25	4170.00
1109.67	4121.00
1110.08	4137.00
1110.50	4086.00
1110.91	4039.00
1111.33	3951.00
1111.74	3980.00
1112.16	3951.00
1112.57	3929.00
1112.99	3839.00
1113.41	3852.00
1113.82	3740.00
1114.24	3681.00
1114.65	3629.00
1115.07	3498.00
1115.48	3380.00
1115.90	2187.00
1116.31	2211.00
1116.73	2209.00
1117.14	2214.00
>>>>>End Processed Spectral Data<<<<<
