SpectraSuite Data File
++++++++++++++++++++++++++++++++++++
Date: Tue May 29 13:19:49 EEST 2018
User: CanSEE
Dark Spectrum Present: No
Reference Spectrum Present: No
Number of Sampled Component Spectra: 1
Spectrometers: MAYP11278
Integration Time (usec): 220000 (MAYP11278)
Spectra Averaged: 1 (MAYP11278)
Boxcar Smoothing: 0 (MAYP11278)
Correct for Electrical Dark: No (MAYP11278)
Strobe/Lamp Enabled: No (MAYP11278)
Correct for Detector Non-linearity: No (MAYP11278)
Correct for Stray Light: No (MAYP11278)
Number of Pixels in Processed Spectrum: 2068
>>>>>Begin Processed Spectral Data<<<<<
187.82	2354.00
188.30	2240.00
188.78	2218.00
189.26	2217.00
189.73	3470.00
190.21	3628.00
190.69	3765.00
191.17	3800.00
191.64	3866.00
192.12	3795.00
192.60	3766.00
193.07	3800.00
193.55	3777.00
194.03	3773.00
194.51	3811.00
194.98	3770.00
195.46	3796.00
195.94	3738.00
196.42	3786.00
196.89	3890.00
197.37	3792.00
197.85	3729.00
198.32	3727.00
198.80	3756.00
199.28	3766.00
199.76	3818.00
200.23	3746.00
200.71	3777.00
201.19	3821.00
201.66	3794.00
202.14	3857.00
202.62	3754.00
203.09	3787.00
203.57	3746.00
204.05	3841.00
204.53	3870.00
205.00	3778.00
205.48	3740.00
205.96	3817.00
206.43	3760.00
206.91	3818.00
207.39	3861.00
207.86	3768.00
208.34	3788.00
208.82	3761.00
209.29	3819.00
209.77	3843.00
210.25	3806.00
210.72	3715.00
211.20	3814.00
211.68	3782.00
212.15	3770.00
212.63	3886.00
213.11	3792.00
213.58	3761.00
214.06	3882.00
214.53	3766.00
215.01	3818.00
215.49	3841.00
215.96	3828.00
216.44	3802.00
216.92	3815.00
217.39	3765.00
217.87	3748.00
218.35	3796.00
218.82	3704.00
219.30	3718.00
219.77	3715.00
220.25	3770.00
220.73	3916.00
221.20	3769.00
221.68	3823.00
222.15	3714.00
222.63	3819.00
223.11	3766.00
223.58	3840.00
224.06	3742.00
224.53	3730.00
225.01	3746.00
225.49	3792.00
225.96	3770.00
226.44	3764.00
226.91	3820.00
227.39	3791.00
227.87	3811.00
228.34	3812.00
228.82	3814.00
229.29	3776.00
229.77	3814.00
230.24	3728.00
230.72	3786.00
231.20	3870.00
231.67	3775.00
232.15	3747.00
232.62	3762.00
233.10	3780.00
233.57	3867.00
234.05	3916.00
234.53	3826.00
235.00	3756.00
235.48	3735.00
235.95	3784.00
236.43	3835.00
236.90	3907.00
237.38	3767.00
237.85	3767.00
238.33	3858.00
238.80	3783.00
239.28	3779.00
239.75	3731.00
240.23	3803.00
240.71	3857.00
241.18	3788.00
241.66	3751.00
242.13	3821.00
242.61	3847.00
243.08	3770.00
243.56	3772.00
244.03	3826.00
244.51	3844.00
244.98	3761.00
245.46	3812.00
245.93	5752.00
246.41	3702.00
246.88	3807.00
247.36	3816.00
247.83	3799.00
248.31	3802.00
248.78	3759.00
249.26	3834.00
249.73	3856.00
250.21	3828.00
250.68	3897.00
251.16	3795.00
251.63	3914.00
252.10	3864.00
252.58	3779.00
253.05	3890.00
253.53	3818.00
254.00	3773.00
254.48	3842.00
254.95	3834.00
255.43	3858.00
255.90	3764.00
256.38	3873.00
256.85	3832.00
257.33	3896.00
257.80	3948.00
258.27	3816.00
258.75	3776.00
259.22	3832.00
259.70	3812.00
260.17	3930.00
260.65	3841.00
261.12	3796.00
261.59	3904.00
262.07	3802.00
262.54	3834.00
263.02	3820.00
263.49	3763.00
263.97	3857.00
264.44	3874.00
264.91	3818.00
265.39	3803.00
265.86	3854.00
266.34	3858.00
266.81	3819.00
267.28	3815.00
267.76	3804.00
268.23	3834.00
268.71	3684.00
269.18	3774.00
269.65	3755.00
270.13	3868.00
270.60	3904.00
271.08	3804.00
271.55	3814.00
272.02	3770.00
272.50	3760.00
272.97	3730.00
273.44	3830.00
273.92	3969.00
274.39	3844.00
274.87	3816.00
275.34	3775.00
275.81	3781.00
276.29	3821.00
276.76	3839.00
277.23	3674.00
277.71	3724.00
278.18	3666.00
278.65	3938.00
279.13	3718.00
279.60	3800.00
280.07	4066.00
280.55	4056.00
281.02	4120.00
281.50	3872.00
281.97	3928.00
282.44	3844.00
282.91	3814.00
283.39	3807.00
283.86	3805.00
284.33	3772.00
284.81	3853.00
285.28	3861.00
285.75	3878.00
286.23	3848.00
286.70	3761.00
287.17	3857.00
287.65	3908.00
288.12	3809.00
288.59	3875.00
289.07	3761.00
289.54	3914.00
290.01	3835.00
290.48	3831.00
290.96	3803.00
291.43	3856.00
291.90	3944.00
292.38	3787.00
292.85	3876.00
293.32	3818.00
293.79	3832.00
294.27	3876.00
294.74	3828.00
295.21	3798.00
295.69	3843.00
296.16	3952.00
296.63	3914.00
297.10	3857.00
297.58	3862.00
298.05	3903.00
298.52	3843.00
298.99	3948.00
299.47	3814.00
299.94	3830.00
300.41	3842.00
300.88	3900.00
301.36	3894.00
301.83	3853.00
302.30	3805.00
302.77	3894.00
303.25	3888.00
303.72	3804.00
304.19	3860.00
304.66	3834.00
305.13	3872.00
305.61	3853.00
306.08	3870.00
306.55	3832.00
307.02	3761.00
307.49	3809.00
307.97	3790.00
308.44	3787.00
308.91	3823.00
309.38	3868.00
309.86	3876.00
310.33	3805.00
310.80	3876.00
311.27	3791.00
311.74	3827.00
312.21	3804.00
312.69	3944.00
313.16	3842.00
313.63	3836.00
314.10	3802.00
314.57	3871.00
315.05	3818.00
315.52	3894.00
315.99	3894.00
316.46	3811.00
316.93	3903.00
317.40	3830.00
317.88	3997.00
318.35	3824.00
318.82	3844.00
319.29	3792.00
319.76	3871.00
320.23	3975.00
320.70	3894.00
321.18	3872.00
321.65	3748.00
322.12	3795.00
322.59	3908.00
323.06	3821.00
323.53	3994.00
324.00	3787.00
324.48	3902.00
324.95	3803.00
325.42	3846.00
325.89	3825.00
326.36	3868.00
326.83	3896.00
327.30	3894.00
327.77	3873.00
328.24	3833.00
328.72	3858.00
329.19	3875.00
329.66	3886.00
330.13	3824.00
330.60	3903.00
331.07	3846.00
331.54	3936.00
332.01	3824.00
332.48	3958.00
332.95	3860.00
333.43	3877.00
333.90	3897.00
334.37	3891.00
334.84	3890.00
335.31	4046.00
335.78	3807.00
336.25	3878.00
336.72	3853.00
337.19	3850.00
337.66	3809.00
338.13	3848.00
338.60	3883.00
339.07	3889.00
339.54	3736.00
340.01	3788.00
340.49	3758.00
340.96	3836.00
341.43	3852.00
341.90	3756.00
342.37	3839.00
342.84	3851.00
343.31	3781.00
343.78	3739.00
344.25	3755.00
344.72	3798.00
345.19	3818.00
345.66	3834.00
346.13	3813.00
346.60	3789.00
347.07	3904.00
347.54	3765.00
348.01	3860.00
348.48	3833.00
348.95	3743.00
349.42	3800.00
349.89	3882.00
350.36	3840.00
350.83	3782.00
351.30	3849.00
351.77	3918.00
352.24	3810.00
352.71	3796.00
353.18	3816.00
353.65	3867.00
354.12	3828.00
354.59	3825.00
355.06	3853.00
355.53	3904.00
356.00	3824.00
356.47	3889.00
356.94	3793.00
357.41	4017.00
357.88	3873.00
358.35	3804.00
358.82	3776.00
359.28	3803.00
359.75	3818.00
360.22	3852.00
360.69	3924.00
361.16	3789.00
361.63	3852.00
362.10	3817.00
362.57	3805.00
363.04	3834.00
363.51	3954.00
363.98	3878.00
364.45	3815.00
364.92	3879.00
365.39	3817.00
365.86	3762.00
366.32	3840.00
366.79	3830.00
367.26	4894.00
367.73	4220.00
368.20	3789.00
368.67	3910.00
369.14	3765.00
369.61	3872.00
370.08	3872.00
370.55	3821.00
371.02	4609.00
371.48	3856.00
371.95	3789.00
372.42	3764.00
372.89	3812.00
373.36	3846.00
373.83	3822.00
374.30	3796.00
374.77	3838.00
375.23	3760.00
375.70	3946.00
376.17	3848.00
376.64	3784.00
377.11	3802.00
377.58	3884.00
378.05	3880.00
378.51	3860.00
378.98	3854.00
379.45	3843.00
379.92	3887.00
380.39	4016.00
380.86	3870.00
381.33	3918.00
381.79	3910.00
382.26	3781.00
382.73	3906.00
383.20	3839.00
383.67	3880.00
384.14	3884.00
384.60	4147.00
385.07	3876.00
385.54	3826.00
386.01	3857.00
386.48	3958.00
386.94	3852.00
387.41	3795.00
387.88	3914.00
388.35	3881.00
388.82	3942.00
389.28	3865.00
389.75	3926.00
390.22	3872.00
390.69	3928.00
391.16	3898.00
391.62	3887.00
392.09	3912.00
392.56	3836.00
393.03	3830.00
393.50	4031.00
393.96	3841.00
394.43	3975.00
394.90	3836.00
395.37	3946.00
395.83	4107.00
396.30	3828.00
396.77	3884.00
397.24	3958.00
397.70	3868.00
398.17	3912.00
398.64	3894.00
399.11	3900.00
399.57	3980.00
400.04	3908.00
400.51	3946.00
400.98	3901.00
401.44	3998.00
401.91	3946.00
402.38	3982.00
402.84	3934.00
403.31	4052.00
403.78	3944.00
404.25	4058.00
404.71	4080.00
405.18	3990.00
405.65	3950.00
406.12	4042.00
406.58	3966.00
407.05	4088.00
407.52	3983.00
407.98	4310.00
408.45	4062.00
408.92	3924.00
409.38	4066.00
409.85	3924.00
410.32	4056.00
410.78	3956.00
411.25	4134.00
411.72	4076.00
412.18	3975.00
412.65	4062.00
413.12	4028.00
413.59	4060.00
414.05	4086.00
414.52	4174.00
414.98	4028.00
415.45	4140.00
415.92	4100.00
416.38	4045.00
416.85	4130.00
417.32	4044.00
417.78	4054.00
418.25	4061.00
418.72	4128.00
419.18	4098.00
419.65	4061.00
420.12	4147.00
420.58	4036.00
421.05	4078.00
421.51	4090.00
421.98	4077.00
422.45	4081.00
422.91	4100.00
423.38	4118.00
423.85	4152.00
424.31	4086.00
424.78	4102.00
425.24	4129.00
425.71	4148.00
426.18	4074.00
426.64	4140.00
427.11	4148.00
427.57	4162.00
428.04	4085.00
428.51	4158.00
428.97	4044.00
429.44	4064.00
429.90	4068.00
430.37	4218.00
430.83	4046.00
431.30	4076.00
431.77	4222.00
432.23	4190.00
432.70	4112.00
433.16	4112.00
433.63	4124.00
434.09	4081.00
434.56	4204.00
435.03	4125.00
435.49	4200.00
435.96	4208.00
436.42	4109.00
436.89	4164.00
437.35	4174.00
437.82	4202.00
438.28	4092.00
438.75	4138.00
439.21	4388.00
439.68	4216.00
440.14	4222.00
440.61	4283.00
441.07	4188.00
441.54	4218.00
442.00	4394.00
442.47	4225.00
442.94	4276.00
443.40	4237.00
443.87	4206.00
444.33	4364.00
444.80	4318.00
445.26	4220.00
445.73	4227.00
446.19	4349.00
446.65	4274.00
447.12	4338.00
447.58	4308.00
448.05	4270.00
448.51	4416.00
448.98	4385.00
449.44	4370.00
449.91	4324.00
450.37	4394.00
450.84	4426.00
451.30	4414.00
451.77	4472.00
452.23	4362.00
452.70	4424.00
453.16	4380.00
453.62	4390.00
454.09	4446.00
454.55	4476.00
455.02	4418.00
455.48	4454.00
455.95	4532.00
456.41	4394.00
456.88	4564.00
457.34	4482.00
457.80	4436.00
458.27	4382.00
458.73	4428.00
459.20	4472.00
459.66	4466.00
460.13	4418.00
460.59	4414.00
461.05	4542.00
461.52	4478.00
461.98	4415.00
462.45	4372.00
462.91	4542.00
463.37	4396.00
463.84	4489.00
464.30	4436.00
464.76	4396.00
465.23	4398.00
465.69	4470.00
466.16	4466.00
466.62	4487.00
467.08	4414.00
467.55	4418.00
468.01	4442.00
468.48	4430.00
468.94	4438.00
469.40	4360.00
469.87	4399.00
470.33	4382.00
470.79	4415.00
471.26	4368.00
471.72	4372.00
472.18	4462.00
472.65	4452.00
473.11	4472.00
473.57	4428.00
474.04	4378.00
474.50	4442.00
474.96	4388.00
475.43	4446.00
475.89	4428.00
476.35	4487.00
476.82	4454.00
477.28	4462.00
477.74	4558.00
478.21	4476.00
478.67	4487.00
479.13	4452.00
479.59	4554.00
480.06	4482.00
480.52	4486.00
480.98	4454.00
481.45	4506.00
481.91	4512.00
482.37	4506.00
482.84	4494.00
483.30	4448.00
483.76	4493.00
484.22	4602.00
484.69	4472.00
485.15	4446.00
485.61	4266.00
486.07	4376.00
486.54	4318.00
487.00	4497.00
487.46	4388.00
487.92	4432.00
488.39	4490.00
488.85	4556.00
489.31	4594.00
489.77	4680.00
490.24	4482.00
490.70	4577.00
491.16	4476.00
491.62	4523.00
492.09	4524.00
492.55	4686.00
493.01	4686.00
493.47	4662.00
493.94	4706.00
494.40	4726.00
494.86	4767.00
495.32	4662.00
495.78	4788.00
496.25	4780.00
496.71	4872.00
497.17	4934.00
497.63	4910.00
498.09	4820.00
498.56	4916.00
499.02	4912.00
499.48	5100.00
499.94	4972.00
500.40	4968.00
500.87	5000.00
501.33	5050.00
501.79	5094.00
502.25	5144.00
502.71	5590.00
503.17	5256.00
503.64	5321.00
504.10	5331.00
504.56	5492.00
505.02	5564.00
505.48	5574.00
505.94	5686.00
506.40	5774.00
506.87	5821.00
507.33	5819.00
507.79	5922.00
508.25	5960.00
508.71	6166.00
509.17	6248.00
509.63	6228.00
510.10	6330.00
510.56	6444.00
511.02	6721.00
511.48	6843.00
511.94	6834.00
512.40	6788.00
512.86	6987.00
513.32	7101.00
513.78	7104.00
514.25	7362.00
514.71	8268.00
515.17	7520.00
515.63	7802.00
516.09	7691.00
516.55	7516.00
517.01	7809.00
517.47	8120.00
517.93	8165.00
518.39	8514.00
518.85	8784.00
519.32	8916.00
519.78	9227.00
520.24	9294.00
520.70	9554.00
521.16	9933.00
521.62	10119.00
522.08	10214.00
522.54	10165.00
523.00	10610.00
523.46	10897.00
523.92	11171.00
524.38	11489.00
524.84	11390.00
525.30	11630.00
525.76	11484.00
526.22	11122.00
526.68	11176.00
527.14	11706.00
527.60	12122.00
528.06	12564.00
528.52	12870.00
528.98	13054.00
529.44	12988.00
529.90	13234.00
530.36	13488.00
530.82	13566.00
531.28	13841.00
531.74	13530.00
532.20	13344.00
532.66	13267.00
533.12	13768.00
533.58	13811.00
534.04	13896.00
534.50	14078.00
534.96	14338.00
535.42	14716.00
535.88	14568.00
536.34	14390.00
536.80	14118.00
537.26	14580.00
537.72	14657.00
538.18	14644.00
538.64	14716.00
539.10	14552.00
539.56	14676.00
540.02	14342.00
540.48	14338.00
540.94	14530.00
541.40	14764.00
541.86	15010.00
542.32	14808.00
542.78	14849.00
543.24	15070.00
543.69	15152.00
544.15	15368.00
544.61	15208.00
545.07	15309.00
545.53	15184.00
545.99	15436.00
546.45	15328.00
546.91	15391.00
547.37	15144.00
547.83	15378.00
548.29	15546.00
548.74	15540.00
549.20	15626.00
549.66	15792.00
550.12	15560.00
550.58	15672.00
551.04	15712.00
551.50	15880.00
551.96	15962.00
552.42	15755.00
552.87	15704.00
553.33	15830.00
553.79	15894.00
554.25	15932.00
554.71	16015.00
555.17	15966.00
555.63	15976.00
556.08	15781.00
556.54	15710.00
557.00	15424.00
557.46	15616.00
557.92	15622.00
558.38	15020.00
558.83	15068.00
559.29	15159.00
559.75	15121.00
560.21	15226.00
560.67	15398.00
561.13	15178.00
561.58	14877.00
562.04	14976.00
562.50	14907.00
562.96	15107.00
563.42	15080.00
563.87	14666.00
564.33	14694.00
564.79	14726.00
565.25	14434.00
565.71	14154.00
566.16	14064.00
566.62	14150.00
567.08	14200.00
567.54	14040.00
568.00	13842.00
568.45	13536.00
568.91	13624.00
569.37	13500.00
569.83	13316.00
570.28	13015.00
570.74	12872.00
571.20	12862.00
571.66	12886.00
572.11	12992.00
572.57	12954.00
573.03	12802.00
573.49	12718.00
573.94	12648.00
574.40	12578.00
574.86	12319.00
575.32	12108.00
575.77	12060.00
576.23	12066.00
576.69	12088.00
577.15	11864.00
577.60	11864.00
578.06	11496.00
578.52	11622.00
578.97	11560.00
579.43	11532.00
579.89	11543.00
580.34	11472.00
580.80	11428.00
581.26	11457.00
581.72	11425.00
582.17	11516.00
582.63	11316.00
583.09	11234.00
583.54	11295.00
584.00	11236.00
584.46	11169.00
584.91	10938.00
585.37	11016.00
585.83	10774.00
586.28	10752.00
586.74	10815.00
587.20	10802.00
587.65	10734.00
588.11	10394.00
588.57	10132.00
589.02	9728.00
589.48	9855.00
589.94	10150.00
590.39	10380.00
590.85	10371.00
591.30	10262.00
591.76	10288.00
592.22	10246.00
592.67	10272.00
593.13	10230.00
593.59	10173.00
594.04	10184.00
594.50	9976.00
594.95	10104.00
595.41	10145.00
595.87	10080.00
596.32	10278.00
596.78	10072.00
597.23	10052.00
597.69	10082.00
598.15	9834.00
598.60	9898.00
599.06	10159.00
599.51	9954.00
599.97	9943.00
600.43	9965.00
600.88	9959.00
601.34	9936.00
601.79	9708.00
602.25	9942.00
602.70	9816.00
603.16	9904.00
603.61	9881.00
604.07	9748.00
604.53	9940.00
604.98	9770.00
605.44	9748.00
605.89	9678.00
606.35	9572.00
606.80	9722.00
607.26	9442.00
607.71	9524.00
608.17	9418.00
608.62	9339.00
609.08	9426.00
609.53	9296.00
609.99	9100.00
610.44	9126.00
610.90	9136.00
611.35	9084.00
611.81	9086.00
612.26	8972.00
612.72	8953.00
613.17	9044.00
613.63	8718.00
614.08	8699.00
614.54	8700.00
614.99	8669.00
615.45	8638.00
615.90	8520.00
616.36	8353.00
616.81	8363.00
617.27	8520.00
617.72	8470.00
618.18	8420.00
618.63	8382.00
619.09	8314.00
619.54	8402.00
619.99	8362.00
620.45	8426.00
620.90	8481.00
621.36	8282.00
621.81	8380.00
622.27	8294.00
622.72	8258.00
623.18	8125.00
623.63	8093.00
624.08	8196.00
624.54	7994.00
624.99	8056.00
625.45	8114.00
625.90	7976.00
626.35	8125.00
626.81	8132.00
627.26	8034.00
627.72	7959.00
628.17	8018.00
628.62	8000.00
629.08	8024.00
629.53	7978.00
629.99	7868.00
630.44	7994.00
630.89	8058.00
631.35	7934.00
631.80	7999.00
632.26	8044.00
632.71	7976.00
633.16	8010.00
633.62	7885.00
634.07	7920.00
634.52	7848.00
634.98	7946.00
635.43	7938.00
635.88	7774.00
636.34	7819.00
636.79	7905.00
637.24	7770.00
637.70	7804.00
638.15	7730.00
638.60	7688.00
639.06	7550.00
639.51	7416.00
639.96	7290.00
640.42	7424.00
640.87	7262.00
641.32	7220.00
641.78	7232.00
642.23	7121.00
642.68	7016.00
643.14	6966.00
643.59	7032.00
644.04	6854.00
644.49	6786.00
644.95	6684.00
645.40	6690.00
645.85	6561.00
646.31	6490.00
646.76	6536.00
647.21	6462.00
647.66	6406.00
648.12	6343.00
648.57	6234.00
649.02	6289.00
649.47	6146.00
649.93	6420.00
650.38	6138.00
650.83	6179.00
651.28	6168.00
651.74	6122.00
652.19	6086.00
652.64	6130.00
653.09	6086.00
653.55	6082.00
654.00	6054.00
654.45	6059.00
654.90	5918.00
655.35	5786.00
655.81	5680.00
656.26	5410.00
656.71	5627.00
657.16	5763.00
657.62	5772.00
658.07	5748.00
658.52	5764.00
658.97	5674.00
659.42	5862.00
659.88	5690.00
660.33	5674.00
660.78	5604.00
661.23	5531.00
661.68	5488.00
662.13	5452.00
662.59	5328.00
663.04	5372.00
663.49	5402.00
663.94	5258.00
664.39	5294.00
664.84	5226.00
665.30	5208.00
665.75	5115.00
666.20	5190.00
666.65	5136.00
667.10	5230.00
667.55	5158.00
668.00	5029.00
668.46	5028.00
668.91	4966.00
669.36	5114.00
669.81	4946.00
670.26	4909.00
670.71	4980.00
671.16	4958.00
671.61	5022.00
672.06	5054.00
672.52	4878.00
672.97	4940.00
673.42	4950.00
673.87	5072.00
674.32	4865.00
674.77	4916.00
675.22	4844.00
675.67	4856.00
676.12	4862.00
676.57	4827.00
677.02	4862.00
677.47	4832.00
677.93	4988.00
678.38	4879.00
678.83	4806.00
679.28	4906.00
679.73	4891.00
680.18	4908.00
680.63	4894.00
681.08	4850.00
681.53	4866.00
681.98	4942.00
682.43	4976.00
682.88	5044.00
683.33	5072.00
683.78	5172.00
684.23	5186.00
684.68	5210.00
685.13	5322.00
685.58	5342.00
686.03	5304.00
686.48	5200.00
686.93	5196.00
687.38	5244.00
687.83	5507.00
688.28	5694.00
688.73	6014.00
689.18	6029.00
689.63	6102.00
690.08	6302.00
690.53	6642.00
690.98	6822.00
691.43	7197.00
691.88	7380.00
692.33	7724.00
692.78	8008.00
693.23	8393.00
693.68	8624.00
694.13	8974.00
694.58	9330.00
695.03	10020.00
695.48	10247.00
695.93	10726.00
696.38	11428.00
696.83	11894.00
697.28	12198.00
697.72	12512.00
698.17	12922.00
698.62	13376.00
699.07	13928.00
699.52	14331.00
699.97	14646.00
700.42	15176.00
700.87	15698.00
701.32	16356.00
701.77	16446.00
702.22	17100.00
702.67	17328.00
703.11	18060.00
703.56	18526.00
704.01	19169.00
704.46	19782.00
704.91	20434.00
705.36	20648.00
705.81	21224.00
706.26	21358.00
706.70	22032.00
707.15	22438.00
707.60	23004.00
708.05	23362.00
708.50	23840.00
708.95	24243.00
709.40	24682.00
709.84	25128.00
710.29	25486.00
710.74	25708.00
711.19	26178.00
711.64	26500.00
712.09	26968.00
712.53	27404.00
712.98	27764.00
713.43	28220.00
713.88	28524.00
714.33	28606.00
714.78	28685.00
715.22	29094.00
715.67	29468.00
716.12	28914.00
716.57	28108.00
717.02	27305.00
717.46	26876.00
717.91	26914.00
718.36	26324.00
718.81	26238.00
719.26	26534.00
719.70	26768.00
720.15	27502.00
720.60	29071.00
721.05	30832.00
721.49	31920.00
721.94	32884.00
722.39	32752.00
722.84	32280.00
723.28	31200.00
723.73	30952.00
724.18	31169.00
724.63	31852.00
725.07	31786.00
725.52	32592.00
725.97	33162.00
726.42	33652.00
726.86	34164.00
727.31	33736.00
727.76	34056.00
728.21	34532.00
728.65	34748.00
729.10	34818.00
729.55	35710.00
729.99	36456.00
730.44	37031.00
730.89	37374.00
731.33	37974.00
731.78	39061.00
732.23	39929.00
732.68	40633.00
733.12	41276.00
733.57	42162.00
734.02	42598.00
734.46	43088.00
734.91	43064.00
735.36	43612.00
735.80	43976.00
736.25	44072.00
736.70	44609.00
737.14	45187.00
737.59	45372.00
738.04	45230.00
738.48	44961.00
738.93	45236.00
739.37	45820.00
739.82	46206.00
740.27	46800.00
740.71	46634.00
741.16	46842.00
741.61	47023.00
742.05	47148.00
742.50	47566.00
742.94	47808.00
743.39	48242.00
743.84	48314.00
744.28	48222.00
744.73	48414.00
745.18	48851.00
745.62	49010.00
746.07	49382.00
746.51	49166.00
746.96	49092.00
747.40	49108.00
747.85	48934.00
748.30	48833.00
748.74	48791.00
749.19	48664.00
749.63	48720.00
750.08	49148.00
750.52	49138.00
750.97	49031.00
751.42	48931.00
751.86	49069.00
752.31	49025.00
752.75	48661.00
753.20	48752.00
753.64	48820.00
754.09	48766.00
754.53	48994.00
754.98	48754.00
755.42	48648.00
755.87	48875.00
756.31	48746.00
756.76	48128.00
757.20	47960.00
757.65	47529.00
758.09	46568.00
758.54	45030.00
758.98	39754.00
759.43	31164.00
759.87	22388.00
760.32	17572.00
760.76	17714.00
761.21	21694.00
761.65	26301.00
762.10	27442.00
762.54	25692.00
762.99	24524.00
763.43	25304.00
763.88	26944.00
764.32	29355.00
764.77	31864.00
765.21	33944.00
765.66	35924.00
766.10	38108.00
766.54	39938.00
766.99	41608.00
767.43	43086.00
767.88	44120.00
768.32	44929.00
768.77	45470.00
769.21	46086.00
769.66	46590.00
770.10	47140.00
770.54	47476.00
770.99	47598.00
771.43	47500.00
771.88	47400.00
772.32	47450.00
772.76	47194.00
773.21	47434.00
773.65	46924.00
774.10	46854.00
774.54	46704.00
774.98	46910.00
775.43	47240.00
775.87	47655.00
776.31	47836.00
776.76	47917.00
777.20	47706.00
777.65	47190.00
778.09	47068.00
778.53	46612.00
778.98	46529.00
779.42	46852.00
779.86	46438.00
780.31	46440.00
780.75	46616.00
781.19	46880.00
781.64	47169.00
782.08	47108.00
782.52	46754.00
782.97	46276.00
783.41	46066.00
783.85	45764.00
784.30	45585.00
784.74	45418.00
785.18	45368.00
785.63	45386.00
786.07	45370.00
786.51	45262.00
786.95	45422.00
787.40	45166.00
787.84	45284.00
788.28	45068.00
788.73	44634.00
789.17	43990.00
789.61	43654.00
790.05	43626.00
790.50	43082.00
790.94	43042.00
791.38	43030.00
791.82	43162.00
792.27	42992.00
792.71	43336.00
793.15	43566.00
793.59	43262.00
794.04	43172.00
794.48	42972.00
794.92	42358.00
795.36	42172.00
795.81	42024.00
796.25	41574.00
796.69	41822.00
797.13	42322.00
797.57	42878.00
798.02	42948.00
798.46	43024.00
798.90	42840.00
799.34	42504.00
799.79	42148.00
800.23	41380.00
800.67	41253.00
801.11	40892.00
801.55	40925.00
801.99	40928.00
802.44	40931.00
802.88	41174.00
803.32	41155.00
803.76	41324.00
804.20	41663.00
804.64	41580.00
805.09	41702.00
805.53	41636.00
805.97	41340.00
806.41	40846.00
806.85	40340.00
807.29	39980.00
807.74	39913.00
808.18	39646.00
808.62	39458.00
809.06	39609.00
809.50	39713.00
809.94	39766.00
810.38	39884.00
810.82	40062.00
811.27	39726.00
811.71	38960.00
812.15	38226.00
812.59	37124.00
813.03	36321.00
813.47	34984.00
813.91	34162.00
814.35	33515.00
814.79	33247.00
815.23	33114.00
815.67	32764.00
816.12	32925.00
816.56	32916.00
817.00	32916.00
817.44	33386.00
817.88	33404.00
818.32	32678.00
818.76	33036.00
819.20	33080.00
819.64	33384.00
820.08	33757.00
820.52	34468.00
820.96	35078.00
821.40	34118.00
821.84	33120.00
822.28	31418.00
822.72	31424.00
823.16	31267.00
823.60	33067.00
824.04	35346.00
824.48	35556.00
824.92	35688.00
825.36	35472.00
825.80	35006.00
826.24	34806.00
826.68	34346.00
827.12	34172.00
827.56	33531.00
828.00	33456.00
828.44	33936.00
828.88	34172.00
829.32	34786.00
829.76	34622.00
830.20	35514.00
830.64	34848.00
831.08	34734.00
831.52	34184.00
831.96	33518.00
832.40	33364.00
832.84	33626.00
833.28	34057.00
833.72	34554.00
834.16	35184.00
834.60	36014.00
835.04	36410.00
835.48	36736.00
835.91	36702.00
836.35	36420.00
836.79	36320.00
837.23	36086.00
837.67	35539.00
838.11	35494.00
838.55	35608.00
838.99	35368.00
839.43	35944.00
839.87	36218.00
840.30	36734.00
840.74	37056.00
841.18	37448.00
841.62	37714.00
842.06	37568.00
842.50	37466.00
842.94	37122.00
843.38	36500.00
843.81	36005.00
844.25	35876.00
844.69	35320.00
845.13	35064.00
845.57	35450.00
846.01	35394.00
846.45	35762.00
846.88	36127.00
847.32	36734.00
847.76	37206.00
848.20	37080.00
848.64	36594.00
849.08	36118.00
849.51	35996.00
849.95	35364.00
850.39	35360.00
850.83	35794.00
851.27	35460.00
851.70	34820.00
852.14	34602.00
852.58	33996.00
853.02	32596.00
853.46	31924.00
853.89	31889.00
854.33	31972.00
854.77	33578.00
855.21	35402.00
855.65	36577.00
856.08	36936.00
856.52	36808.00
856.96	36896.00
857.40	36022.00
857.83	35412.00
858.27	34796.00
858.71	34253.00
859.15	34202.00
859.58	34484.00
860.02	34620.00
860.46	34964.00
860.89	35796.00
861.33	36098.00
861.77	36392.00
862.21	36666.00
862.64	36744.00
863.08	36778.00
863.52	36584.00
863.95	35600.00
864.39	35178.00
864.83	33748.00
865.27	32314.00
865.70	32274.00
866.14	31208.00
866.58	31440.00
867.01	33148.00
867.45	34174.00
867.89	34686.00
868.32	35580.00
868.76	35966.00
869.20	36106.00
869.63	36140.00
870.07	35767.00
870.51	34946.00
870.94	34280.00
871.38	33474.00
871.82	32897.00
872.25	32634.00
872.69	32521.00
873.13	32652.00
873.56	33197.00
874.00	33358.00
874.43	34060.00
874.87	34536.00
875.31	34930.00
875.74	35116.00
876.18	35320.00
876.61	35214.00
877.05	34940.00
877.49	34608.00
877.92	34170.00
878.36	33608.00
878.79	32756.00
879.23	32448.00
879.67	31625.00
880.10	31784.00
880.54	31604.00
880.97	32046.00
881.41	32954.00
881.84	33760.00
882.28	34550.00
882.72	34862.00
883.15	35422.00
883.59	35494.00
884.02	35292.00
884.46	35267.00
884.89	34451.00
885.33	34008.00
885.76	32907.00
886.20	32346.00
886.63	31828.00
887.07	31200.00
887.50	31568.00
887.94	31656.00
888.37	31914.00
888.81	32382.00
889.24	32706.00
889.68	32949.00
890.11	33376.00
890.55	33870.00
890.98	33938.00
891.42	34104.00
891.85	33786.00
892.29	33570.00
892.72	32584.00
893.16	31660.00
893.59	31105.00
894.03	29960.00
894.46	29042.00
894.90	28004.00
895.33	26690.00
895.77	26956.00
896.20	26682.00
896.63	26796.00
897.07	26798.00
897.50	26586.00
897.94	27032.00
898.37	27838.00
898.81	25972.00
899.24	26499.00
899.68	27629.00
900.11	26946.00
900.54	26308.00
900.98	25900.00
901.41	25710.00
901.85	26018.00
902.28	26009.00
902.71	26413.00
903.15	27417.00
903.58	28032.00
904.02	27748.00
904.45	27996.00
904.88	27732.00
905.32	27418.00
905.75	27347.00
906.18	26606.00
906.62	26862.00
907.05	26258.00
907.48	26214.00
907.92	25998.00
908.35	26078.00
908.79	25493.00
909.22	25390.00
909.65	25266.00
910.09	24900.00
910.52	24632.00
910.95	24916.00
911.38	24738.00
911.82	23892.00
912.25	24734.00
912.68	24944.00
913.12	24740.00
913.55	24932.00
913.98	25896.00
914.42	26984.00
914.85	27032.00
915.28	25638.00
915.72	25522.00
916.15	25442.00
916.58	25472.00
917.01	24428.00
917.45	23976.00
917.88	24527.00
918.31	24994.00
918.74	25848.00
919.18	25884.00
919.61	26082.00
920.04	26578.00
920.47	26896.00
920.91	27051.00
921.34	26874.00
921.77	27192.00
922.20	27636.00
922.64	27354.00
923.07	27210.00
923.50	26930.00
923.93	26634.00
924.37	26220.00
924.80	25739.00
925.23	25518.00
925.66	24572.00
926.09	23602.00
926.53	22940.00
926.96	22120.00
927.39	21042.00
927.82	20088.00
928.25	19292.00
928.69	18882.00
929.12	18428.00
929.55	17670.00
929.98	16940.00
930.41	16014.00
930.84	15336.00
931.28	14170.00
931.71	13254.00
932.14	12022.00
932.57	11726.00
933.00	11070.00
933.43	10710.00
933.86	9873.00
934.30	9697.00
934.73	10888.00
935.16	10161.00
935.59	9728.00
936.02	10276.00
936.45	9802.00
936.88	10042.00
937.31	11082.00
937.75	11334.00
938.18	11998.00
938.61	12550.00
939.04	13044.00
939.47	12612.00
939.90	12022.00
940.33	11628.00
940.76	10746.00
941.19	10322.00
941.62	10213.00
942.05	9918.00
942.48	9052.00
942.91	9201.00
943.35	9610.00
943.78	8918.00
944.21	8979.00
944.64	9678.00
945.07	9810.00
945.50	9723.00
945.93	9956.00
946.36	10385.00
946.79	10564.00
947.22	11202.00
947.65	10798.00
948.08	10394.00
948.51	11225.00
948.94	11456.00
949.37	10970.00
949.80	10492.00
950.23	10808.00
950.66	11264.00
951.09	11086.00
951.52	10610.00
951.95	10734.00
952.38	11060.00
952.81	11720.00
953.24	12244.00
953.67	12456.00
954.10	12290.00
954.53	12800.00
954.96	12728.00
955.39	13248.00
955.82	13868.00
956.25	13195.00
956.68	13820.00
957.11	13932.00
957.53	13406.00
957.96	13430.00
958.39	13098.00
958.82	12559.00
959.25	13098.00
959.68	13516.00
960.11	13714.00
960.54	13961.00
960.97	14731.00
961.40	15060.00
961.83	14692.00
962.26	15290.00
962.68	16539.00
963.11	16592.00
963.54	16696.00
963.97	16928.00
964.40	16838.00
964.83	17384.00
965.26	17452.00
965.69	17352.00
966.11	17204.00
966.54	17420.00
966.97	17873.00
967.40	18152.00
967.83	18060.00
968.26	18060.00
968.69	18352.00
969.11	18304.00
969.54	17988.00
969.97	18326.00
970.40	18676.00
970.83	18602.00
971.26	18866.00
971.68	18696.00
972.11	18932.00
972.54	19242.00
972.97	19139.00
973.40	18888.00
973.82	19018.00
974.25	18924.00
974.68	18603.00
975.11	18388.00
975.54	18066.00
975.96	17846.00
976.39	17934.00
976.82	17886.00
977.25	17543.00
977.67	17664.00
978.10	17634.00
978.53	17876.00
978.96	18317.00
979.38	18594.00
979.81	18962.00
980.24	19548.00
980.67	19810.00
981.09	20040.00
981.52	20396.00
981.95	20284.00
982.38	20374.00
982.80	20498.00
983.23	21008.00
983.66	20928.00
984.08	20769.00
984.51	20462.00
984.94	20254.00
985.37	20212.00
985.79	19660.00
986.22	19176.00
986.65	18986.00
987.07	18740.00
987.50	18726.00
987.93	18825.00
988.35	18816.00
988.78	19056.00
989.21	19270.00
989.63	19556.00
990.06	19784.00
990.49	20052.00
990.91	20212.00
991.34	20612.00
991.77	20598.00
992.19	20537.00
992.62	20464.00
993.05	20388.00
993.47	20269.00
993.90	20008.00
994.32	19619.00
994.75	19361.00
995.18	19132.00
995.60	19004.00
996.03	18470.00
996.45	18415.00
996.88	18100.00
997.31	18098.00
997.73	18218.00
998.16	18098.00
998.58	18331.00
999.01	18348.00
999.44	18627.00
999.86	18870.00
1000.29	18892.00
1000.71	19112.00
1001.14	19298.00
1001.56	19064.00
1001.99	19133.00
1002.41	18858.00
1002.84	18468.00
1003.27	17954.00
1003.69	17782.00
1004.12	17312.00
1004.54	17130.00
1004.97	16950.00
1005.39	16637.00
1005.82	16530.00
1006.24	16406.00
1006.67	16300.00
1007.09	16352.00
1007.52	16374.00
1007.94	16276.00
1008.37	16454.00
1008.79	16468.00
1009.22	16564.00
1009.64	16635.00
1010.07	16508.00
1010.49	16607.00
1010.92	16724.00
1011.34	16664.00
1011.77	16606.00
1012.19	16702.00
1012.62	16470.00
1013.04	16205.00
1013.46	16126.00
1013.89	15568.00
1014.31	15527.00
1014.74	15150.00
1015.16	14890.00
1015.59	14804.00
1016.01	14906.00
1016.44	14858.00
1016.86	15753.00
1017.28	15083.00
1017.71	15150.00
1018.13	15258.00
1018.56	15422.00
1018.98	15488.00
1019.40	15576.00
1019.83	15672.00
1020.25	15806.00
1020.68	15778.00
1021.10	16038.00
1021.52	16062.00
1021.95	16378.00
1022.37	16242.00
1022.79	16090.00
1023.22	16072.00
1023.64	15948.00
1024.07	15772.00
1024.49	15580.00
1024.91	15196.00
1025.34	15051.00
1025.76	15108.00
1026.18	14724.00
1026.61	14676.00
1027.03	14652.00
1027.45	14652.00
1027.88	14696.00
1028.30	14872.00
1028.72	14840.00
1029.15	15044.00
1029.57	15108.00
1029.99	15120.00
1030.41	14926.00
1030.84	15106.00
1031.26	14952.00
1031.68	14786.00
1032.11	14810.00
1032.53	14564.00
1032.95	14486.00
1033.37	14182.00
1033.80	14124.00
1034.22	13910.00
1034.64	13686.00
1035.06	13462.00
1035.49	13152.00
1035.91	12994.00
1036.33	12952.00
1036.75	12876.00
1037.18	12835.00
1037.60	12746.00
1038.02	12685.00
1038.44	12720.00
1038.87	12780.00
1039.29	12758.00
1039.71	12818.00
1040.13	12846.00
1040.55	12812.00
1040.98	12888.00
1041.40	12612.00
1041.82	12677.00
1042.24	12455.00
1042.66	12420.00
1043.09	12256.00
1043.51	12020.00
1043.93	11904.00
1044.35	11726.00
1044.77	11487.00
1045.20	11432.00
1045.62	11281.00
1046.04	11206.00
1046.46	11058.00
1046.88	10890.00
1047.30	10916.00
1047.72	10826.00
1048.15	10666.00
1048.57	10500.00
1048.99	10560.00
1049.41	10592.00
1049.83	10498.00
1050.25	10608.00
1050.67	10462.00
1051.09	10401.00
1051.52	10439.00
1051.94	10292.00
1052.36	10381.00
1052.78	10274.00
1053.20	10203.00
1053.62	10187.00
1054.04	10150.00
1054.46	10040.00
1054.88	10002.00
1055.30	9880.00
1055.72	9676.00
1056.14	9602.00
1056.57	9636.00
1056.99	9256.00
1057.41	9265.00
1057.83	9118.00
1058.25	8984.00
1058.67	8934.00
1059.09	8890.00
1059.51	8726.00
1059.93	8687.00
1060.35	8598.00
1060.77	8672.00
1061.19	8614.00
1061.61	8526.00
1062.03	8530.00
1062.45	8330.00
1062.87	8514.00
1063.29	8418.00
1063.71	8376.00
1064.13	8244.00
1064.55	8204.00
1064.97	8294.00
1065.39	8190.00
1065.81	8136.00
1066.23	8046.00
1066.65	7994.00
1067.07	8054.00
1067.49	7848.00
1067.91	7786.00
1068.33	7650.00
1068.75	7711.00
1069.17	7674.00
1069.59	7584.00
1070.00	7462.00
1070.42	7454.00
1070.84	7303.00
1071.26	7300.00
1071.68	7160.00
1072.10	7264.00
1072.52	7146.00
1072.94	7100.00
1073.36	7114.00
1073.78	7132.00
1074.20	7072.00
1074.62	7093.00
1075.03	6954.00
1075.45	6960.00
1075.87	7076.00
1076.29	6954.00
1076.71	7004.00
1077.13	6941.00
1077.55	6782.00
1077.97	6790.00
1078.38	6834.00
1078.80	6728.00
1079.22	6664.00
1079.64	6560.00
1080.06	6510.00
1080.48	6454.00
1080.89	6414.00
1081.31	6320.00
1081.73	6286.00
1082.15	6313.00
1082.57	6300.00
1082.99	6232.00
1083.40	6186.00
1083.82	6138.00
1084.24	6106.00
1084.66	6051.00
1085.08	6145.00
1085.49	5972.00
1085.91	6102.00
1086.33	7432.00
1086.75	6070.00
1087.17	5946.00
1087.58	5974.00
1088.00	6028.00
1088.42	6006.00
1088.84	5878.00
1089.25	5828.00
1089.67	5835.00
1090.09	5720.00
1090.51	5706.00
1090.92	5686.00
1091.34	5517.00
1091.76	5492.00
1092.18	5436.00
1092.59	5404.00
1093.01	5394.00
1093.43	5400.00
1093.84	5265.00
1094.26	5266.00
1094.68	5324.00
1095.10	5218.00
1095.51	5244.00
1095.93	5174.00
1096.35	5248.00
1096.76	5246.00
1097.18	5133.00
1097.60	5116.00
1098.01	5033.00
1098.43	5015.00
1098.85	4976.00
1099.26	5000.00
1099.68	4940.00
1100.10	4866.00
1100.51	4736.00
1100.93	4780.00
1101.35	4801.00
1101.76	4726.00
1102.18	5288.00
1102.60	4768.00
1103.01	4565.00
1103.43	4672.00
1103.84	4624.00
1104.26	4573.00
1104.68	4606.00
1105.09	4470.00
1105.51	4500.00
1105.92	4535.00
1106.34	4450.00
1106.76	4440.00
1107.17	4414.00
1107.59	4374.00
1108.00	4244.00
1108.42	4326.00
1108.83	4232.00
1109.25	4230.00
1109.67	4152.00
1110.08	4148.00
1110.50	4136.00
1110.91	4094.00
1111.33	4062.00
1111.74	4066.00
1112.16	4074.00
1112.57	4006.00
1112.99	3936.00
1113.41	3990.00
1113.82	3872.00
1114.24	3884.00
1114.65	3759.00
1115.07	3666.00
1115.48	3521.00
1115.90	2182.00
1116.31	2214.00
1116.73	2213.00
1117.14	2221.00
>>>>>End Processed Spectral Data<<<<<
