SpectraSuite Data File
++++++++++++++++++++++++++++++++++++
Date: Tue May 29 13:10:57 EEST 2018
User: CanSEE
Dark Spectrum Present: No
Reference Spectrum Present: No
Number of Sampled Component Spectra: 1
Spectrometers: MAYP11278
Integration Time (usec): 230000 (MAYP11278)
Spectra Averaged: 1 (MAYP11278)
Boxcar Smoothing: 0 (MAYP11278)
Correct for Electrical Dark: No (MAYP11278)
Strobe/Lamp Enabled: No (MAYP11278)
Correct for Detector Non-linearity: No (MAYP11278)
Correct for Stray Light: No (MAYP11278)
Number of Pixels in Processed Spectrum: 2068
>>>>>Begin Processed Spectral Data<<<<<
187.82	2343.00
188.30	2237.00
188.78	2203.00
189.26	2213.00
189.73	3254.00
190.21	3308.00
190.69	3418.00
191.17	3429.00
191.64	3475.00
192.12	3403.00
192.60	3409.00
193.07	3351.00
193.55	3390.00
194.03	3421.00
194.51	3417.00
194.98	3397.00
195.46	3431.00
195.94	3415.00
196.42	3402.00
196.89	3535.00
197.37	3415.00
197.85	3379.00
198.32	3409.00
198.80	3399.00
199.28	3425.00
199.76	3479.00
200.23	3427.00
200.71	3401.00
201.19	3480.00
201.66	3458.00
202.14	3454.00
202.62	3412.00
203.09	3445.00
203.57	3371.00
204.05	3489.00
204.53	3511.00
205.00	3435.00
205.48	3383.00
205.96	3501.00
206.43	3399.00
206.91	3442.00
207.39	3559.00
207.86	3421.00
208.34	3456.00
208.82	3467.00
209.29	3458.00
209.77	3467.00
210.25	3427.00
210.72	3430.00
211.20	3466.00
211.68	3439.00
212.15	3397.00
212.63	3505.00
213.11	3466.00
213.58	3435.00
214.06	3527.00
214.53	3465.00
215.01	3484.00
215.49	3457.00
215.96	3438.00
216.44	3463.00
216.92	3481.00
217.39	3455.00
217.87	3456.00
218.35	3518.00
218.82	3377.00
219.30	3401.00
219.77	3425.00
220.25	3455.00
220.73	3548.00
221.20	3413.00
221.68	3480.00
222.15	3420.00
222.63	3455.00
223.11	3421.00
223.58	3461.00
224.06	3462.00
224.53	3441.00
225.01	3443.00
225.49	3465.00
225.96	3453.00
226.44	3411.00
226.91	3507.00
227.39	3444.00
227.87	3443.00
228.34	3515.00
228.82	3448.00
229.29	3438.00
229.77	3433.00
230.24	3411.00
230.72	3444.00
231.20	3542.00
231.67	3467.00
232.15	3460.00
232.62	3417.00
233.10	3444.00
233.57	3476.00
234.05	3564.00
234.53	3484.00
235.00	3407.00
235.48	3429.00
235.95	3445.00
236.43	3507.00
236.90	3525.00
237.38	3428.00
237.85	3448.00
238.33	3485.00
238.80	3469.00
239.28	3419.00
239.75	3421.00
240.23	3516.00
240.71	3499.00
241.18	3498.00
241.66	3433.00
242.13	3480.00
242.61	3515.00
243.08	3397.00
243.56	3435.00
244.03	3492.00
244.51	3468.00
244.98	3428.00
245.46	3482.00
245.93	5151.00
246.41	3384.00
246.88	3467.00
247.36	3477.00
247.83	3438.00
248.31	3456.00
248.78	3421.00
249.26	3498.00
249.73	3470.00
250.21	3487.00
250.68	3522.00
251.16	3485.00
251.63	3561.00
252.10	3544.00
252.58	3464.00
253.05	3462.00
253.53	3477.00
254.00	3445.00
254.48	3464.00
254.95	3489.00
255.43	3519.00
255.90	3456.00
256.38	3515.00
256.85	3468.00
257.33	3523.00
257.80	3580.00
258.27	3448.00
258.75	3489.00
259.22	3447.00
259.70	3469.00
260.17	3539.00
260.65	3473.00
261.12	3450.00
261.59	3505.00
262.07	3427.00
262.54	3489.00
263.02	3494.00
263.49	3439.00
263.97	3493.00
264.44	3495.00
264.91	3443.00
265.39	3491.00
265.86	3488.00
266.34	3493.00
266.81	3504.00
267.28	3502.00
267.76	3498.00
268.23	3497.00
268.71	3380.00
269.18	3380.00
269.65	3445.00
270.13	3441.00
270.60	3484.00
271.08	3466.00
271.55	3466.00
272.02	3413.00
272.50	3445.00
272.97	3397.00
273.44	3467.00
273.92	3632.00
274.39	3481.00
274.87	3474.00
275.34	3407.00
275.81	3427.00
276.29	3473.00
276.76	3459.00
277.23	3373.00
277.71	3373.00
278.18	3335.00
278.65	3570.00
279.13	3393.00
279.60	3403.00
280.07	3723.00
280.55	3677.00
281.02	3787.00
281.50	3551.00
281.97	3621.00
282.44	3488.00
282.91	3521.00
283.39	3547.00
283.86	3501.00
284.33	3451.00
284.81	3553.00
285.28	3499.00
285.75	3494.00
286.23	3501.00
286.70	3443.00
287.17	3536.00
287.65	3543.00
288.12	3486.00
288.59	3480.00
289.07	3375.00
289.54	3531.00
290.01	3440.00
290.48	3500.00
290.96	3456.00
291.43	3502.00
291.90	3598.00
292.38	3452.00
292.85	3522.00
293.32	3443.00
293.79	3510.00
294.27	3466.00
294.74	3463.00
295.21	3481.00
295.69	3454.00
296.16	3528.00
296.63	3542.00
297.10	3489.00
297.58	3532.00
298.05	3523.00
298.52	3456.00
298.99	3520.00
299.47	3460.00
299.94	3531.00
300.41	3454.00
300.88	3503.00
301.36	3512.00
301.83	3525.00
302.30	3419.00
302.77	3510.00
303.25	3514.00
303.72	3429.00
304.19	3485.00
304.66	3489.00
305.13	3479.00
305.61	3495.00
306.08	3519.00
306.55	3528.00
307.02	3476.00
307.49	3440.00
307.97	3501.00
308.44	3500.00
308.91	3509.00
309.38	3507.00
309.86	3516.00
310.33	3481.00
310.80	3532.00
311.27	3473.00
311.74	3535.00
312.21	3484.00
312.69	3559.00
313.16	3491.00
313.63	3453.00
314.10	3518.00
314.57	3459.00
315.05	3497.00
315.52	3543.00
315.99	3528.00
316.46	3536.00
316.93	3544.00
317.40	3479.00
317.88	3623.00
318.35	3506.00
318.82	3531.00
319.29	3431.00
319.76	3512.00
320.23	3575.00
320.70	3555.00
321.18	3510.00
321.65	3439.00
322.12	3460.00
322.59	3605.00
323.06	3505.00
323.53	3671.00
324.00	3514.00
324.48	3520.00
324.95	3504.00
325.42	3479.00
325.89	3535.00
326.36	3506.00
326.83	3519.00
327.30	3502.00
327.77	3565.00
328.24	3576.00
328.72	3535.00
329.19	3486.00
329.66	3517.00
330.13	3453.00
330.60	3586.00
331.07	3555.00
331.54	3562.00
332.01	3523.00
332.48	3597.00
332.95	3573.00
333.43	3547.00
333.90	3538.00
334.37	3565.00
334.84	3554.00
335.31	3711.00
335.78	3476.00
336.25	3529.00
336.72	3537.00
337.19	3509.00
337.66	3529.00
338.13	3496.00
338.60	3585.00
339.07	3542.00
339.54	3496.00
340.01	3505.00
340.49	3496.00
340.96	3508.00
341.43	3568.00
341.90	3492.00
342.37	3508.00
342.84	3551.00
343.31	3514.00
343.78	3501.00
344.25	3500.00
344.72	3467.00
345.19	3527.00
345.66	3548.00
346.13	3494.00
346.60	3489.00
347.07	3592.00
347.54	3490.00
348.01	3572.00
348.48	3531.00
348.95	3468.00
349.42	3507.00
349.89	3559.00
350.36	3544.00
350.83	3472.00
351.30	3558.00
351.77	3613.00
352.24	3554.00
352.71	3536.00
353.18	3567.00
353.65	3523.00
354.12	3539.00
354.59	3524.00
355.06	3547.00
355.53	3615.00
356.00	3491.00
356.47	3627.00
356.94	3473.00
357.41	3671.00
357.88	3529.00
358.35	3460.00
358.82	3497.00
359.28	3521.00
359.75	3515.00
360.22	3617.00
360.69	3573.00
361.16	3535.00
361.63	3551.00
362.10	3523.00
362.57	3534.00
363.04	3566.00
363.51	3647.00
363.98	3533.00
364.45	3488.00
364.92	3543.00
365.39	3502.00
365.86	3493.00
366.32	3562.00
366.79	3542.00
367.26	4441.00
367.73	3864.00
368.20	3492.00
368.67	3583.00
369.14	3533.00
369.61	3542.00
370.08	3526.00
370.55	3511.00
371.02	4353.00
371.48	3556.00
371.95	3494.00
372.42	3465.00
372.89	3534.00
373.36	3587.00
373.83	3467.00
374.30	3471.00
374.77	3515.00
375.23	3490.00
375.70	3609.00
376.17	3497.00
376.64	3489.00
377.11	3453.00
377.58	3543.00
378.05	3503.00
378.51	3536.00
378.98	3517.00
379.45	3525.00
379.92	3520.00
380.39	3682.00
380.86	3525.00
381.33	3609.00
381.79	3615.00
382.26	3450.00
382.73	3528.00
383.20	3551.00
383.67	3561.00
384.14	3539.00
384.60	3727.00
385.07	3523.00
385.54	3513.00
386.01	3546.00
386.48	3634.00
386.94	3469.00
387.41	3462.00
387.88	3547.00
388.35	3531.00
388.82	3617.00
389.28	3462.00
389.75	3584.00
390.22	3521.00
390.69	3560.00
391.16	3533.00
391.62	3523.00
392.09	3589.00
392.56	3494.00
393.03	3519.00
393.50	3630.00
393.96	3523.00
394.43	3594.00
394.90	3497.00
395.37	3556.00
395.83	3756.00
396.30	3497.00
396.77	3565.00
397.24	3542.00
397.70	3516.00
398.17	3524.00
398.64	3543.00
399.11	3533.00
399.57	3595.00
400.04	3477.00
400.51	3540.00
400.98	3528.00
401.44	3585.00
401.91	3570.00
402.38	3558.00
402.84	3538.00
403.31	3585.00
403.78	3518.00
404.25	3607.00
404.71	3620.00
405.18	3579.00
405.65	3498.00
406.12	3590.00
406.58	3553.00
407.05	3659.00
407.52	3552.00
407.98	4081.00
408.45	3504.00
408.92	3489.00
409.38	3589.00
409.85	3502.00
410.32	3570.00
410.78	3510.00
411.25	3637.00
411.72	3579.00
412.18	3501.00
412.65	3571.00
413.12	3542.00
413.59	3591.00
414.05	3586.00
414.52	3650.00
414.98	3556.00
415.45	3660.00
415.92	3636.00
416.38	3568.00
416.85	3691.00
417.32	3594.00
417.78	3573.00
418.25	3597.00
418.72	3576.00
419.18	3686.00
419.65	3569.00
420.12	3620.00
420.58	3551.00
421.05	3615.00
421.51	3597.00
421.98	3649.00
422.45	3619.00
422.91	3614.00
423.38	3627.00
423.85	3660.00
424.31	3652.00
424.78	3640.00
425.24	3633.00
425.71	3689.00
426.18	3635.00
426.64	3681.00
427.11	3620.00
427.57	3696.00
428.04	3612.00
428.51	3660.00
428.97	3672.00
429.44	3627.00
429.90	3671.00
430.37	3769.00
430.83	3596.00
431.30	3671.00
431.77	3801.00
432.23	3741.00
432.70	3673.00
433.16	3623.00
433.63	3698.00
434.09	3655.00
434.56	3692.00
435.03	3626.00
435.49	3737.00
435.96	3725.00
436.42	3680.00
436.89	3752.00
437.35	3705.00
437.82	3697.00
438.28	3663.00
438.75	3675.00
439.21	3860.00
439.68	3722.00
440.14	3746.00
440.61	3819.00
441.07	3694.00
441.54	3703.00
442.00	3831.00
442.47	3641.00
442.94	3775.00
443.40	3765.00
443.87	3678.00
444.33	3813.00
444.80	3780.00
445.26	3678.00
445.73	3785.00
446.19	3759.00
446.65	3777.00
447.12	3747.00
447.58	3736.00
448.05	3738.00
448.51	3769.00
448.98	3778.00
449.44	3745.00
449.91	3763.00
450.37	3746.00
450.84	3796.00
451.30	3772.00
451.77	3814.00
452.23	3697.00
452.70	3818.00
453.16	3759.00
453.62	3806.00
454.09	3749.00
454.55	3807.00
455.02	3769.00
455.48	3752.00
455.95	3829.00
456.41	3729.00
456.88	3866.00
457.34	3739.00
457.80	3755.00
458.27	3748.00
458.73	3755.00
459.20	3799.00
459.66	3794.00
460.13	3716.00
460.59	3718.00
461.05	3833.00
461.52	3795.00
461.98	3727.00
462.45	3705.00
462.91	3805.00
463.37	3687.00
463.84	3745.00
464.30	3738.00
464.76	3667.00
465.23	3655.00
465.69	3717.00
466.16	3673.00
466.62	3685.00
467.08	3742.00
467.55	3670.00
468.01	3664.00
468.48	3685.00
468.94	3691.00
469.40	3663.00
469.87	3663.00
470.33	3671.00
470.79	3630.00
471.26	3637.00
471.72	3640.00
472.18	3652.00
472.65	3611.00
473.11	3733.00
473.57	3619.00
474.04	3659.00
474.50	3613.00
474.96	3639.00
475.43	3661.00
475.89	3651.00
476.35	3677.00
476.82	3668.00
477.28	3675.00
477.74	3721.00
478.21	3664.00
478.67	3723.00
479.13	3589.00
479.59	3762.00
480.06	3662.00
480.52	3701.00
480.98	3638.00
481.45	3654.00
481.91	3673.00
482.37	3602.00
482.84	3679.00
483.30	3611.00
483.76	3666.00
484.22	3726.00
484.69	3649.00
485.15	3630.00
485.61	3517.00
486.07	3579.00
486.54	3536.00
487.00	3631.00
487.46	3546.00
487.92	3619.00
488.39	3601.00
488.85	3643.00
489.31	3697.00
489.77	3695.00
490.24	3618.00
490.70	3667.00
491.16	3577.00
491.62	3627.00
492.09	3604.00
492.55	3683.00
493.01	3701.00
493.47	3663.00
493.94	3608.00
494.40	3676.00
494.86	3715.00
495.32	3677.00
495.78	3663.00
496.25	3683.00
496.71	3714.00
497.17	3801.00
497.63	3728.00
498.09	3708.00
498.56	3685.00
499.02	3664.00
499.48	3821.00
499.94	3734.00
500.40	3673.00
500.87	3715.00
501.33	3700.00
501.79	3778.00
502.25	3735.00
502.71	4052.00
503.17	3758.00
503.64	3796.00
504.10	3773.00
504.56	3813.00
505.02	3808.00
505.48	3787.00
505.94	3895.00
506.40	3903.00
506.87	3864.00
507.33	3911.00
507.79	3890.00
508.25	3870.00
508.71	3919.00
509.17	3883.00
509.63	3921.00
510.10	3991.00
510.56	3991.00
511.02	4085.00
511.48	4073.00
511.94	4024.00
512.40	3969.00
512.86	3997.00
513.32	4101.00
513.78	4041.00
514.25	4160.00
514.71	4849.00
515.17	4131.00
515.63	4283.00
516.09	4283.00
516.55	4239.00
517.01	4300.00
517.47	4263.00
517.93	4267.00
518.39	4429.00
518.85	4350.00
519.32	4447.00
519.78	4397.00
520.24	4487.00
520.70	4586.00
521.16	4675.00
521.62	4701.00
522.08	4642.00
522.54	4656.00
523.00	4830.00
523.46	4831.00
523.92	4843.00
524.38	5037.00
524.84	4941.00
525.30	5008.00
525.76	4961.00
526.22	4908.00
526.68	4880.00
527.14	4970.00
527.60	5011.00
528.06	5186.00
528.52	5175.00
528.98	5225.00
529.44	5215.00
529.90	5204.00
530.36	5384.00
530.82	5339.00
531.28	5419.00
531.74	5381.00
532.20	5321.00
532.66	5269.00
533.12	5378.00
533.58	5369.00
534.04	5365.00
534.50	5457.00
534.96	5499.00
535.42	5555.00
535.88	5554.00
536.34	5514.00
536.80	5431.00
537.26	5610.00
537.72	5614.00
538.18	5527.00
538.64	5574.00
539.10	5575.00
539.56	5729.00
540.02	5449.00
540.48	5612.00
540.94	5593.00
541.40	5596.00
541.86	5640.00
542.32	5671.00
542.78	5632.00
543.24	5751.00
543.69	5681.00
544.15	5790.00
544.61	5804.00
545.07	5695.00
545.53	5757.00
545.99	5819.00
546.45	5717.00
546.91	5751.00
547.37	5824.00
547.83	5726.00
548.29	5809.00
548.74	5858.00
549.20	5800.00
549.66	5973.00
550.12	5800.00
550.58	5724.00
551.04	5877.00
551.50	5880.00
551.96	5955.00
552.42	5867.00
552.87	5823.00
553.33	5898.00
553.79	5973.00
554.25	5879.00
554.71	5921.00
555.17	5839.00
555.63	5974.00
556.08	5928.00
556.54	5900.00
557.00	5700.00
557.46	5793.00
557.92	5938.00
558.38	5749.00
558.83	5681.00
559.29	5731.00
559.75	5728.00
560.21	5745.00
560.67	5787.00
561.13	5706.00
561.58	5688.00
562.04	5675.00
562.50	5667.00
562.96	5753.00
563.42	5715.00
563.87	5612.00
564.33	5652.00
564.79	5645.00
565.25	5567.00
565.71	5517.00
566.16	5528.00
566.62	5493.00
567.08	5498.00
567.54	5487.00
568.00	5485.00
568.45	5375.00
568.91	5447.00
569.37	5406.00
569.83	5380.00
570.28	5256.00
570.74	5243.00
571.20	5238.00
571.66	5258.00
572.11	5343.00
572.57	5305.00
573.03	5155.00
573.49	5215.00
573.94	5261.00
574.40	5300.00
574.86	5223.00
575.32	5069.00
575.77	5107.00
576.23	5019.00
576.69	5124.00
577.15	5062.00
577.60	4965.00
578.06	4949.00
578.52	4989.00
578.97	4987.00
579.43	4979.00
579.89	5040.00
580.34	5044.00
580.80	4961.00
581.26	4985.00
581.72	4965.00
582.17	4957.00
582.63	4910.00
583.09	4909.00
583.54	4935.00
584.00	4911.00
584.46	4905.00
584.91	4886.00
585.37	4903.00
585.83	4812.00
586.28	4813.00
586.74	4860.00
587.20	4848.00
587.65	4887.00
588.11	4701.00
588.57	4646.00
589.02	4627.00
589.48	4600.00
589.94	4697.00
590.39	4742.00
590.85	4668.00
591.30	4657.00
591.76	4760.00
592.22	4717.00
592.67	4731.00
593.13	4703.00
593.59	4753.00
594.04	4655.00
594.50	4655.00
594.95	4713.00
595.41	4689.00
595.87	4628.00
596.32	4697.00
596.78	4697.00
597.23	4687.00
597.69	4665.00
598.15	4583.00
598.60	4642.00
599.06	4663.00
599.51	4635.00
599.97	4649.00
600.43	4695.00
600.88	4632.00
601.34	4647.00
601.79	4527.00
602.25	4733.00
602.70	4593.00
603.16	4647.00
603.61	4541.00
604.07	4567.00
604.53	4591.00
604.98	4584.00
605.44	4601.00
605.89	4586.00
606.35	4510.00
606.80	4584.00
607.26	4519.00
607.71	4551.00
608.17	4586.00
608.62	4569.00
609.08	4625.00
609.53	4511.00
609.99	4471.00
610.44	4475.00
610.90	4492.00
611.35	4437.00
611.81	4509.00
612.26	4471.00
612.72	4377.00
613.17	4542.00
613.63	4288.00
614.08	4332.00
614.54	4331.00
614.99	4308.00
615.45	4359.00
615.90	4343.00
616.36	4237.00
616.81	4287.00
617.27	4249.00
617.72	4394.00
618.18	4274.00
618.63	4242.00
619.09	4316.00
619.54	4329.00
619.99	4300.00
620.45	4332.00
620.90	4338.00
621.36	4235.00
621.81	4303.00
622.27	4340.00
622.72	4306.00
623.18	4229.00
623.63	4145.00
624.08	4261.00
624.54	4163.00
624.99	4202.00
625.45	4197.00
625.90	4190.00
626.35	4257.00
626.81	4236.00
627.26	4209.00
627.72	4201.00
628.17	4241.00
628.62	4169.00
629.08	4173.00
629.53	4222.00
629.99	4132.00
630.44	4241.00
630.89	4199.00
631.35	4221.00
631.80	4244.00
632.26	4211.00
632.71	4205.00
633.16	4157.00
633.62	4143.00
634.07	4173.00
634.52	4196.00
634.98	4155.00
635.43	4199.00
635.88	4135.00
636.34	4180.00
636.79	4184.00
637.24	4123.00
637.70	4138.00
638.15	4130.00
638.60	4089.00
639.06	4097.00
639.51	4044.00
639.96	3999.00
640.42	4113.00
640.87	4153.00
641.32	3983.00
641.78	3989.00
642.23	4037.00
642.68	3975.00
643.14	4013.00
643.59	4068.00
644.04	3971.00
644.49	3929.00
644.95	3983.00
645.40	3913.00
645.85	3955.00
646.31	3955.00
646.76	3945.00
647.21	3917.00
647.66	3951.00
648.12	3891.00
648.57	3800.00
649.02	3937.00
649.47	3859.00
649.93	4095.00
650.38	3820.00
650.83	3833.00
651.28	3808.00
651.74	3827.00
652.19	3788.00
652.64	3865.00
653.09	3789.00
653.55	3802.00
654.00	3806.00
654.45	3827.00
654.90	3807.00
655.35	3772.00
655.81	3764.00
656.26	3664.00
656.71	3732.00
657.16	3763.00
657.62	3820.00
658.07	3727.00
658.52	3772.00
658.97	3699.00
659.42	3953.00
659.88	3755.00
660.33	3820.00
660.78	3710.00
661.23	3694.00
661.68	3724.00
662.13	3707.00
662.59	3659.00
663.04	3709.00
663.49	3675.00
663.94	3663.00
664.39	3655.00
664.84	3632.00
665.30	3658.00
665.75	3637.00
666.20	3650.00
666.65	3620.00
667.10	3751.00
667.55	3675.00
668.00	3554.00
668.46	3651.00
668.91	3596.00
669.36	3699.00
669.81	3538.00
670.26	3597.00
670.71	3600.00
671.16	3582.00
671.61	3643.00
672.06	3669.00
672.52	3581.00
672.97	3557.00
673.42	3635.00
673.87	3733.00
674.32	3548.00
674.77	3596.00
675.22	3473.00
675.67	3524.00
676.12	3537.00
676.57	3547.00
677.02	3545.00
677.47	3562.00
677.93	3671.00
678.38	3522.00
678.83	3540.00
679.28	3610.00
679.73	3540.00
680.18	3569.00
680.63	3508.00
681.08	3479.00
681.53	3535.00
681.98	3547.00
682.43	3567.00
682.88	3626.00
683.33	3617.00
683.78	3614.00
684.23	3652.00
684.68	3645.00
685.13	3641.00
685.58	3677.00
686.03	3654.00
686.48	3564.00
686.93	3597.00
687.38	3570.00
687.83	3607.00
688.28	3661.00
688.73	3839.00
689.18	3714.00
689.63	3708.00
690.08	3755.00
690.53	3803.00
690.98	3786.00
691.43	3890.00
691.88	3901.00
692.33	3991.00
692.78	4041.00
693.23	4088.00
693.68	4183.00
694.13	4165.00
694.58	4217.00
695.03	4542.00
695.48	4317.00
695.93	4471.00
696.38	4589.00
696.83	4623.00
697.28	4605.00
697.72	4752.00
698.17	4680.00
698.62	4823.00
699.07	4941.00
699.52	4928.00
699.97	5020.00
700.42	5126.00
700.87	5183.00
701.32	5387.00
701.77	5187.00
702.22	5420.00
702.67	5360.00
703.11	5495.00
703.56	5683.00
704.01	5693.00
704.46	5765.00
704.91	5912.00
705.36	5976.00
705.81	6042.00
706.26	5984.00
706.70	6169.00
707.15	6145.00
707.60	6235.00
708.05	6377.00
708.50	6439.00
708.95	6464.00
709.40	6561.00
709.84	6570.00
710.29	6737.00
710.74	6716.00
711.19	6817.00
711.64	6887.00
712.09	6903.00
712.53	6999.00
712.98	7169.00
713.43	7054.00
713.88	7115.00
714.33	7194.00
714.78	7205.00
715.22	7148.00
715.67	7267.00
716.12	7164.00
716.57	7021.00
717.02	6794.00
717.46	6637.00
717.91	6744.00
718.36	6711.00
718.81	6596.00
719.26	6623.00
719.70	6755.00
720.15	6793.00
720.60	6964.00
721.05	7295.00
721.49	7587.00
721.94	7741.00
722.39	7668.00
722.84	7517.00
723.28	7401.00
723.73	7377.00
724.18	7300.00
724.63	7578.00
725.07	7425.00
725.52	7547.00
725.97	7581.00
726.42	7796.00
726.86	7923.00
727.31	7740.00
727.76	7907.00
728.21	7932.00
728.65	7900.00
729.10	7973.00
729.55	7995.00
729.99	8224.00
730.44	8219.00
730.89	8287.00
731.33	8452.00
731.78	8547.00
732.23	8715.00
732.68	8799.00
733.12	8948.00
733.57	9097.00
734.02	9215.00
734.46	9275.00
734.91	9338.00
735.36	9313.00
735.80	9466.00
736.25	9360.00
736.70	9419.00
737.14	9686.00
737.59	9638.00
738.04	9620.00
738.48	9566.00
738.93	9539.00
739.37	9691.00
739.82	9843.00
740.27	9982.00
740.71	9785.00
741.16	9939.00
741.61	9936.00
742.05	9945.00
742.50	9949.00
742.94	10017.00
743.39	10075.00
743.84	10170.00
744.28	10149.00
744.73	10202.00
745.18	10248.00
745.62	10380.00
746.07	10277.00
746.51	10263.00
746.96	10248.00
747.40	10255.00
747.85	10265.00
748.30	10140.00
748.74	10240.00
749.19	10254.00
749.63	10304.00
750.08	10315.00
750.52	10269.00
750.97	10266.00
751.42	10255.00
751.86	10164.00
752.31	10256.00
752.75	10335.00
753.20	10255.00
753.64	10277.00
754.09	10197.00
754.53	10384.00
754.98	10260.00
755.42	10268.00
755.87	10196.00
756.31	10290.00
756.76	10124.00
757.20	10176.00
757.65	10056.00
758.09	9971.00
758.54	9700.00
758.98	8870.00
759.43	7461.00
759.87	5986.00
760.32	5221.00
760.76	5187.00
761.21	5815.00
761.65	6534.00
762.10	6607.00
762.54	6463.00
762.99	6197.00
763.43	6379.00
763.88	6611.00
764.32	6908.00
764.77	7304.00
765.21	7731.00
765.66	8047.00
766.10	8357.00
766.54	8720.00
766.99	9125.00
767.43	9276.00
767.88	9474.00
768.32	9552.00
768.77	9667.00
769.21	9845.00
769.66	9899.00
770.10	10050.00
770.54	10039.00
770.99	10080.00
771.43	10025.00
771.88	9985.00
772.32	10047.00
772.76	9935.00
773.21	10091.00
773.65	10021.00
774.10	9924.00
774.54	9998.00
774.98	9933.00
775.43	10044.00
775.87	10046.00
776.31	10189.00
776.76	10085.00
777.20	10139.00
777.65	10027.00
778.09	10031.00
778.53	9924.00
778.98	9919.00
779.42	10104.00
779.86	10001.00
780.31	9940.00
780.75	10108.00
781.19	9988.00
781.64	9955.00
782.08	10035.00
782.52	9963.00
782.97	9795.00
783.41	9908.00
783.85	9827.00
784.30	9747.00
784.74	9831.00
785.18	9759.00
785.63	9628.00
786.07	9840.00
786.51	9763.00
786.95	9765.00
787.40	9760.00
787.84	9644.00
788.28	9701.00
788.73	9677.00
789.17	9436.00
789.61	9475.00
790.05	9400.00
790.50	9345.00
790.94	9266.00
791.38	9366.00
791.82	9311.00
792.27	9417.00
792.71	9372.00
793.15	9664.00
793.59	9376.00
794.04	9385.00
794.48	9335.00
794.92	9200.00
795.36	9027.00
795.81	9166.00
796.25	9027.00
796.69	9165.00
797.13	9211.00
797.57	9262.00
798.02	9320.00
798.46	9360.00
798.90	9360.00
799.34	9158.00
799.79	9243.00
800.23	9102.00
800.67	8915.00
801.11	9013.00
801.55	8965.00
801.99	8990.00
802.44	8919.00
802.88	9172.00
803.32	9150.00
803.76	9076.00
804.20	9163.00
804.64	9111.00
805.09	9228.00
805.53	9218.00
805.97	9080.00
806.41	9076.00
806.85	8983.00
807.29	8854.00
807.74	8803.00
808.18	8777.00
808.62	8859.00
809.06	8854.00
809.50	8763.00
809.94	8726.00
810.38	8815.00
810.82	8862.00
811.27	8987.00
811.71	8595.00
812.15	8528.00
812.59	8386.00
813.03	8362.00
813.47	8009.00
813.91	7828.00
814.35	7741.00
814.79	7716.00
815.23	7679.00
815.67	7554.00
816.12	7612.00
816.56	7580.00
817.00	7687.00
817.44	7706.00
817.88	7721.00
818.32	7589.00
818.76	7639.00
819.20	7664.00
819.64	7702.00
820.08	7822.00
820.52	7899.00
820.96	8005.00
821.40	7839.00
821.84	7727.00
822.28	7397.00
822.72	7339.00
823.16	7352.00
823.60	7611.00
824.04	8005.00
824.48	8145.00
824.92	8075.00
825.36	8077.00
825.80	7945.00
826.24	7955.00
826.68	7737.00
827.12	7821.00
827.56	7794.00
828.00	7831.00
828.44	7823.00
828.88	7861.00
829.32	7969.00
829.76	7922.00
830.20	8150.00
830.64	7953.00
831.08	8040.00
831.52	7895.00
831.96	7795.00
832.40	7657.00
832.84	7783.00
833.28	7761.00
833.72	7949.00
834.16	8055.00
834.60	8230.00
835.04	8272.00
835.48	8251.00
835.91	8282.00
836.35	8326.00
836.79	8249.00
837.23	8242.00
837.67	8122.00
838.11	8068.00
838.55	8093.00
838.99	8055.00
839.43	8213.00
839.87	8253.00
840.30	8327.00
840.74	8365.00
841.18	8444.00
841.62	8358.00
842.06	8375.00
842.50	8428.00
842.94	8411.00
843.38	8329.00
843.81	8154.00
844.25	8097.00
844.69	8029.00
845.13	8140.00
845.57	8094.00
846.01	8165.00
846.45	8101.00
846.88	8247.00
847.32	8207.00
847.76	8293.00
848.20	8420.00
848.64	8309.00
849.08	8291.00
849.51	8342.00
849.95	8123.00
850.39	8173.00
850.83	8171.00
851.27	8115.00
851.70	7985.00
852.14	8034.00
852.58	7899.00
853.02	7683.00
853.46	7514.00
853.89	7576.00
854.33	7665.00
854.77	7734.00
855.21	8052.00
855.65	8333.00
856.08	8453.00
856.52	8419.00
856.96	8344.00
857.40	8212.00
857.83	8082.00
858.27	8047.00
858.71	7847.00
859.15	7899.00
859.58	8025.00
860.02	8061.00
860.46	8068.00
860.89	8226.00
861.33	8185.00
861.77	8269.00
862.21	8319.00
862.64	8337.00
863.08	8404.00
863.52	8249.00
863.95	8135.00
864.39	8109.00
864.83	7917.00
865.27	7639.00
865.70	7557.00
866.14	7391.00
866.58	7533.00
867.01	7776.00
867.45	7958.00
867.89	8013.00
868.32	8147.00
868.76	8228.00
869.20	8208.00
869.63	8324.00
870.07	8265.00
870.51	7961.00
870.94	7933.00
871.38	7739.00
871.82	7704.00
872.25	7609.00
872.69	7679.00
873.13	7688.00
873.56	7855.00
874.00	7853.00
874.43	7941.00
874.87	7861.00
875.31	8097.00
875.74	7963.00
876.18	8118.00
876.61	8099.00
877.05	7986.00
877.49	8005.00
877.92	7885.00
878.36	7806.00
878.79	7729.00
879.23	7618.00
879.67	7494.00
880.10	7507.00
880.54	7481.00
880.97	7573.00
881.41	7708.00
881.84	7905.00
882.28	7946.00
882.72	8016.00
883.15	8146.00
883.59	8036.00
884.02	8138.00
884.46	8001.00
884.89	7953.00
885.33	7875.00
885.76	7630.00
886.20	7547.00
886.63	7579.00
887.07	7509.00
887.50	7484.00
887.94	7472.00
888.37	7615.00
888.81	7754.00
889.24	7680.00
889.68	7753.00
890.11	7769.00
890.55	7880.00
890.98	7937.00
891.42	7859.00
891.85	7877.00
892.29	7723.00
892.72	7583.00
893.16	7431.00
893.59	7356.00
894.03	7180.00
894.46	7082.00
894.90	6783.00
895.33	6729.00
895.77	6712.00
896.20	6646.00
896.63	6668.00
897.07	6706.00
897.50	6674.00
897.94	6757.00
898.37	6879.00
898.81	6592.00
899.24	6537.00
899.68	6763.00
900.11	6693.00
900.54	6617.00
900.98	6534.00
901.41	6546.00
901.85	6630.00
902.28	6569.00
902.71	6623.00
903.15	6828.00
903.58	6900.00
904.02	6897.00
904.45	6841.00
904.88	6897.00
905.32	6790.00
905.75	6910.00
906.18	6730.00
906.62	6728.00
907.05	6574.00
907.48	6630.00
907.92	6566.00
908.35	6607.00
908.79	6453.00
909.22	6450.00
909.65	6456.00
910.09	6463.00
910.52	6493.00
910.95	6373.00
911.38	6383.00
911.82	6231.00
912.25	6370.00
912.68	6411.00
913.12	6395.00
913.55	6338.00
913.98	6411.00
914.42	6657.00
914.85	6737.00
915.28	6515.00
915.72	6511.00
916.15	6423.00
916.58	6469.00
917.01	6270.00
917.45	6267.00
917.88	6319.00
918.31	6442.00
918.74	6552.00
919.18	6683.00
919.61	6626.00
920.04	6725.00
920.47	6779.00
920.91	6780.00
921.34	6670.00
921.77	6694.00
922.20	6808.00
922.64	6766.00
923.07	6822.00
923.50	6790.00
923.93	6672.00
924.37	6667.00
924.80	6507.00
925.23	6537.00
925.66	6479.00
926.09	6162.00
926.53	6095.00
926.96	5977.00
927.39	5973.00
927.82	5663.00
928.25	5503.00
928.69	5499.00
929.12	5447.00
929.55	5292.00
929.98	5258.00
930.41	5006.00
930.84	4936.00
931.28	4730.00
931.71	4628.00
932.14	4420.00
932.57	4485.00
933.00	4315.00
933.43	4261.00
933.86	4153.00
934.30	4107.00
934.73	4289.00
935.16	4106.00
935.59	4034.00
936.02	4170.00
936.45	4111.00
936.88	4109.00
937.31	4286.00
937.75	4315.00
938.18	4392.00
938.61	4575.00
939.04	4555.00
939.47	4557.00
939.90	4472.00
940.33	4463.00
940.76	4283.00
941.19	4240.00
941.62	4175.00
942.05	4118.00
942.48	4077.00
942.91	4005.00
943.35	4072.00
943.78	4032.00
944.21	3976.00
944.64	4106.00
945.07	4142.00
945.50	4116.00
945.93	4136.00
946.36	4269.00
946.79	4221.00
947.22	4266.00
947.65	4300.00
948.08	4177.00
948.51	4243.00
948.94	4307.00
949.37	4411.00
949.80	4234.00
950.23	4204.00
950.66	4299.00
951.09	4369.00
951.52	4179.00
951.95	4314.00
952.38	4264.00
952.81	4473.00
953.24	4496.00
953.67	4445.00
954.10	4496.00
954.53	4534.00
954.96	4511.00
955.39	4621.00
955.82	4661.00
956.25	4675.00
956.68	4791.00
957.11	4659.00
957.53	4687.00
957.96	4655.00
958.39	4575.00
958.82	4429.00
959.25	4537.00
959.68	4606.00
960.11	4713.00
960.54	4741.00
960.97	4835.00
961.40	4969.00
961.83	4919.00
962.26	4879.00
962.68	5112.00
963.11	5143.00
963.54	5102.00
963.97	5163.00
964.40	5162.00
964.83	5247.00
965.26	5173.00
965.69	5189.00
966.11	5216.00
966.54	5159.00
966.97	5302.00
967.40	5424.00
967.83	5513.00
968.26	5385.00
968.69	5385.00
969.11	5381.00
969.54	5362.00
969.97	5357.00
970.40	5440.00
970.83	5389.00
971.26	5463.00
971.68	5409.00
972.11	5416.00
972.54	5499.00
972.97	5463.00
973.40	5487.00
973.82	5493.00
974.25	5427.00
974.68	5411.00
975.11	5361.00
975.54	5290.00
975.96	5260.00
976.39	5300.00
976.82	5339.00
977.25	5278.00
977.67	5251.00
978.10	5320.00
978.53	5317.00
978.96	5449.00
979.38	5503.00
979.81	5417.00
980.24	5628.00
980.67	5649.00
981.09	5646.00
981.52	5732.00
981.95	5694.00
982.38	5737.00
982.80	5695.00
983.23	5795.00
983.66	5871.00
984.08	5719.00
984.51	5680.00
984.94	5691.00
985.37	5707.00
985.79	5553.00
986.22	5480.00
986.65	5530.00
987.07	5462.00
987.50	5557.00
987.93	5477.00
988.35	5521.00
988.78	5474.00
989.21	5530.00
989.63	5603.00
990.06	5639.00
990.49	5712.00
990.91	5831.00
991.34	5812.00
991.77	5738.00
992.19	5769.00
992.62	5721.00
993.05	5699.00
993.47	5679.00
993.90	5677.00
994.32	5655.00
994.75	5619.00
995.18	5562.00
995.60	5497.00
996.03	5401.00
996.45	5465.00
996.88	5477.00
997.31	5312.00
997.73	5419.00
998.16	5409.00
998.58	5489.00
999.01	5410.00
999.44	5495.00
999.86	5519.00
1000.29	5518.00
1000.71	5543.00
1001.14	5601.00
1001.56	5545.00
1001.99	5548.00
1002.41	5545.00
1002.84	5436.00
1003.27	5326.00
1003.69	5360.00
1004.12	5255.00
1004.54	5265.00
1004.97	5219.00
1005.39	5184.00
1005.82	5154.00
1006.24	5126.00
1006.67	5094.00
1007.09	5103.00
1007.52	5117.00
1007.94	5111.00
1008.37	5318.00
1008.79	5217.00
1009.22	5194.00
1009.64	5203.00
1010.07	5199.00
1010.49	5237.00
1010.92	5169.00
1011.34	5205.00
1011.77	5217.00
1012.19	5207.00
1012.62	5211.00
1013.04	5091.00
1013.46	5196.00
1013.89	4969.00
1014.31	5062.00
1014.74	4957.00
1015.16	4928.00
1015.59	4925.00
1016.01	4915.00
1016.44	4890.00
1016.86	5750.00
1017.28	4891.00
1017.71	4900.00
1018.13	5174.00
1018.56	5057.00
1018.98	5067.00
1019.40	5061.00
1019.83	5045.00
1020.25	5077.00
1020.68	5085.00
1021.10	5201.00
1021.52	5108.00
1021.95	5293.00
1022.37	5194.00
1022.79	5145.00
1023.22	5144.00
1023.64	5107.00
1024.07	5067.00
1024.49	5084.00
1024.91	4992.00
1025.34	4951.00
1025.76	5087.00
1026.18	4939.00
1026.61	4979.00
1027.03	4887.00
1027.45	4859.00
1027.88	4865.00
1028.30	5045.00
1028.72	4957.00
1029.15	5002.00
1029.57	4975.00
1029.99	5071.00
1030.41	4925.00
1030.84	4971.00
1031.26	5009.00
1031.68	4917.00
1032.11	4979.00
1032.53	4859.00
1032.95	4836.00
1033.37	4905.00
1033.80	4835.00
1034.22	4764.00
1034.64	4812.00
1035.06	4707.00
1035.49	4671.00
1035.91	4705.00
1036.33	4572.00
1036.75	4666.00
1037.18	4667.00
1037.60	4628.00
1038.02	4672.00
1038.44	4687.00
1038.87	4658.00
1039.29	4625.00
1039.71	4622.00
1040.13	4625.00
1040.55	4695.00
1040.98	4701.00
1041.40	4689.00
1041.82	4640.00
1042.24	4581.00
1042.66	4602.00
1043.09	4501.00
1043.51	4541.00
1043.93	4457.00
1044.35	4480.00
1044.77	4455.00
1045.20	4437.00
1045.62	4365.00
1046.04	4379.00
1046.46	4417.00
1046.88	4328.00
1047.30	4382.00
1047.72	4396.00
1048.15	4347.00
1048.57	4258.00
1048.99	4295.00
1049.41	4347.00
1049.83	4335.00
1050.25	4408.00
1050.67	4304.00
1051.09	4267.00
1051.52	4311.00
1051.94	4187.00
1052.36	4269.00
1052.78	4202.00
1053.20	4283.00
1053.62	4234.00
1054.04	4179.00
1054.46	4255.00
1054.88	4269.00
1055.30	4264.00
1055.72	4189.00
1056.14	4205.00
1056.57	4321.00
1056.99	4065.00
1057.41	4121.00
1057.83	4155.00
1058.25	4105.00
1058.67	4058.00
1059.09	4059.00
1059.51	4075.00
1059.93	4082.00
1060.35	4005.00
1060.77	4037.00
1061.19	4063.00
1061.61	4055.00
1062.03	3987.00
1062.45	3953.00
1062.87	4084.00
1063.29	3989.00
1063.71	3976.00
1064.13	3943.00
1064.55	3887.00
1064.97	4019.00
1065.39	3936.00
1065.81	3937.00
1066.23	3922.00
1066.65	3930.00
1067.07	3988.00
1067.49	3919.00
1067.91	3872.00
1068.33	3838.00
1068.75	3936.00
1069.17	3902.00
1069.59	3866.00
1070.00	3846.00
1070.42	3899.00
1070.84	3836.00
1071.26	3744.00
1071.68	3758.00
1072.10	3849.00
1072.52	3811.00
1072.94	3754.00
1073.36	3787.00
1073.78	3770.00
1074.20	3833.00
1074.62	3783.00
1075.03	3749.00
1075.45	3791.00
1075.87	3834.00
1076.29	3768.00
1076.71	3823.00
1077.13	3836.00
1077.55	3687.00
1077.97	3764.00
1078.38	3738.00
1078.80	3724.00
1079.22	3704.00
1079.64	3691.00
1080.06	3717.00
1080.48	3781.00
1080.89	3676.00
1081.31	3642.00
1081.73	3665.00
1082.15	3667.00
1082.57	3699.00
1082.99	3643.00
1083.40	3627.00
1083.82	3697.00
1084.24	3604.00
1084.66	3631.00
1085.08	3634.00
1085.49	3578.00
1085.91	3626.00
1086.33	4861.00
1086.75	3688.00
1087.17	3609.00
1087.58	3582.00
1088.00	3592.00
1088.42	3662.00
1088.84	3585.00
1089.25	3567.00
1089.67	3588.00
1090.09	3609.00
1090.51	3523.00
1090.92	3576.00
1091.34	3519.00
1091.76	3566.00
1092.18	3499.00
1092.59	3548.00
1093.01	3550.00
1093.43	3564.00
1093.84	3516.00
1094.26	3495.00
1094.68	3501.00
1095.10	3477.00
1095.51	3498.00
1095.93	3461.00
1096.35	3518.00
1096.76	3522.00
1097.18	3535.00
1097.60	3470.00
1098.01	3485.00
1098.43	3449.00
1098.85	3462.00
1099.26	3441.00
1099.68	3456.00
1100.10	3388.00
1100.51	3399.00
1100.93	3433.00
1101.35	3404.00
1101.76	3421.00
1102.18	3857.00
1102.60	3460.00
1103.01	3337.00
1103.43	3410.00
1103.84	3393.00
1104.26	3351.00
1104.68	3435.00
1105.09	3347.00
1105.51	3349.00
1105.92	3447.00
1106.34	3294.00
1106.76	3405.00
1107.17	3397.00
1107.59	3348.00
1108.00	3244.00
1108.42	3367.00
1108.83	3274.00
1109.25	3298.00
1109.67	3277.00
1110.08	3307.00
1110.50	3301.00
1110.91	3307.00
1111.33	3304.00
1111.74	3264.00
1112.16	3277.00
1112.57	3274.00
1112.99	3271.00
1113.41	3285.00
1113.82	3239.00
1114.24	3255.00
1114.65	3280.00
1115.07	3195.00
1115.48	3096.00
1115.90	2185.00
1116.31	2209.00
1116.73	2212.00
1117.14	2212.00
>>>>>End Processed Spectral Data<<<<<
