SpectraSuite Data File
++++++++++++++++++++++++++++++++++++
Date: Tue May 29 12:59:24 EEST 2018
User: CanSEE
Dark Spectrum Present: No
Reference Spectrum Present: No
Number of Sampled Component Spectra: 1
Spectrometers: MAYP11278
Integration Time (usec): 250000 (MAYP11278)
Spectra Averaged: 1 (MAYP11278)
Boxcar Smoothing: 0 (MAYP11278)
Correct for Electrical Dark: No (MAYP11278)
Strobe/Lamp Enabled: No (MAYP11278)
Correct for Detector Non-linearity: No (MAYP11278)
Correct for Stray Light: No (MAYP11278)
Number of Pixels in Processed Spectrum: 2068
>>>>>Begin Processed Spectral Data<<<<<
187.82	2327.00
188.30	2236.00
188.78	2201.00
189.26	2202.00
189.73	2998.00
190.21	3153.00
190.69	3258.00
191.17	3295.00
191.64	3345.00
192.12	3277.00
192.60	3324.00
193.07	3323.00
193.55	3275.00
194.03	3328.00
194.51	3310.00
194.98	3276.00
195.46	3362.00
195.94	3353.00
196.42	3305.00
196.89	3419.00
197.37	3323.00
197.85	3269.00
198.32	3279.00
198.80	3318.00
199.28	3322.00
199.76	3350.00
200.23	3347.00
200.71	3316.00
201.19	3350.00
201.66	3317.00
202.14	3350.00
202.62	3270.00
203.09	3321.00
203.57	3243.00
204.05	3336.00
204.53	3333.00
205.00	3319.00
205.48	3270.00
205.96	3334.00
206.43	3280.00
206.91	3304.00
207.39	3428.00
207.86	3309.00
208.34	3328.00
208.82	3306.00
209.29	3347.00
209.77	3314.00
210.25	3317.00
210.72	3319.00
211.20	3339.00
211.68	3286.00
212.15	3288.00
212.63	3370.00
213.11	3311.00
213.58	3276.00
214.06	3370.00
214.53	3330.00
215.01	3354.00
215.49	3333.00
215.96	3307.00
216.44	3349.00
216.92	3341.00
217.39	3291.00
217.87	3305.00
218.35	3371.00
218.82	3236.00
219.30	3254.00
219.77	3310.00
220.25	3263.00
220.73	3410.00
221.20	3318.00
221.68	3306.00
222.15	3308.00
222.63	3333.00
223.11	3270.00
223.58	3330.00
224.06	3315.00
224.53	3237.00
225.01	3243.00
225.49	3292.00
225.96	3270.00
226.44	3278.00
226.91	3301.00
227.39	3282.00
227.87	3295.00
228.34	3311.00
228.82	3292.00
229.29	3294.00
229.77	3283.00
230.24	3259.00
230.72	3310.00
231.20	3313.00
231.67	3288.00
232.15	3301.00
232.62	3250.00
233.10	3290.00
233.57	3309.00
234.05	3413.00
234.53	3332.00
235.00	3263.00
235.48	3298.00
235.95	3312.00
236.43	3329.00
236.90	3387.00
237.38	3289.00
237.85	3313.00
238.33	3314.00
238.80	3315.00
239.28	3278.00
239.75	3289.00
240.23	3364.00
240.71	3352.00
241.18	3303.00
241.66	3291.00
242.13	3321.00
242.61	3339.00
243.08	3272.00
243.56	3331.00
244.03	3325.00
244.51	3369.00
244.98	3296.00
245.46	3330.00
245.93	4202.00
246.41	3268.00
246.88	3326.00
247.36	3322.00
247.83	3290.00
248.31	3320.00
248.78	3269.00
249.26	3353.00
249.73	3332.00
250.21	3305.00
250.68	3350.00
251.16	3335.00
251.63	3394.00
252.10	3356.00
252.58	3303.00
253.05	3384.00
253.53	3320.00
254.00	3335.00
254.48	3337.00
254.95	3352.00
255.43	3358.00
255.90	3299.00
256.38	3310.00
256.85	3331.00
257.33	3352.00
257.80	3446.00
258.27	3350.00
258.75	3306.00
259.22	3324.00
259.70	3290.00
260.17	3357.00
260.65	3298.00
261.12	3300.00
261.59	3410.00
262.07	3280.00
262.54	3351.00
263.02	3349.00
263.49	3277.00
263.97	3339.00
264.44	3342.00
264.91	3295.00
265.39	3371.00
265.86	3353.00
266.34	3331.00
266.81	3317.00
267.28	3316.00
267.76	3339.00
268.23	3336.00
268.71	3237.00
269.18	3279.00
269.65	3315.00
270.13	3359.00
270.60	3331.00
271.08	3319.00
271.55	3365.00
272.02	3301.00
272.50	3335.00
272.97	3274.00
273.44	3328.00
273.92	3446.00
274.39	3325.00
274.87	3351.00
275.34	3305.00
275.81	3287.00
276.29	3322.00
276.76	3320.00
277.23	3238.00
277.71	3244.00
278.18	3190.00
278.65	3355.00
279.13	3247.00
279.60	3317.00
280.07	3553.00
280.55	3519.00
281.02	3589.00
281.50	3443.00
281.97	3406.00
282.44	3364.00
282.91	3358.00
283.39	3363.00
283.86	3327.00
284.33	3326.00
284.81	3371.00
285.28	3351.00
285.75	3349.00
286.23	3350.00
286.70	3318.00
287.17	3339.00
287.65	3390.00
288.12	3331.00
288.59	3358.00
289.07	3272.00
289.54	3363.00
290.01	3319.00
290.48	3350.00
290.96	3290.00
291.43	3330.00
291.90	3426.00
292.38	3269.00
292.85	3370.00
293.32	3302.00
293.79	3404.00
294.27	3328.00
294.74	3335.00
295.21	3362.00
295.69	3345.00
296.16	3418.00
296.63	3392.00
297.10	3410.00
297.58	3358.00
298.05	3381.00
298.52	3355.00
298.99	3397.00
299.47	3345.00
299.94	3348.00
300.41	3304.00
300.88	3401.00
301.36	3355.00
301.83	3401.00
302.30	3309.00
302.77	3350.00
303.25	3388.00
303.72	3352.00
304.19	3329.00
304.66	3279.00
305.13	3327.00
305.61	3356.00
306.08	3366.00
306.55	3383.00
307.02	3319.00
307.49	3311.00
307.97	3337.00
308.44	3305.00
308.91	3360.00
309.38	3357.00
309.86	3326.00
310.33	3307.00
310.80	3339.00
311.27	3298.00
311.74	3364.00
312.21	3344.00
312.69	3447.00
313.16	3287.00
313.63	3316.00
314.10	3338.00
314.57	3313.00
315.05	3298.00
315.52	3385.00
315.99	3382.00
316.46	3337.00
316.93	3385.00
317.40	3318.00
317.88	3436.00
318.35	3323.00
318.82	3363.00
319.29	3285.00
319.76	3399.00
320.23	3396.00
320.70	3357.00
321.18	3369.00
321.65	3286.00
322.12	3307.00
322.59	3421.00
323.06	3337.00
323.53	3419.00
324.00	3277.00
324.48	3374.00
324.95	3364.00
325.42	3359.00
325.89	3347.00
326.36	3376.00
326.83	3367.00
327.30	3380.00
327.77	3383.00
328.24	3371.00
328.72	3338.00
329.19	3382.00
329.66	3376.00
330.13	3347.00
330.60	3397.00
331.07	3365.00
331.54	3459.00
332.01	3373.00
332.48	3449.00
332.95	3432.00
333.43	3409.00
333.90	3450.00
334.37	3398.00
334.84	3397.00
335.31	3549.00
335.78	3328.00
336.25	3387.00
336.72	3363.00
337.19	3342.00
337.66	3291.00
338.13	3335.00
338.60	3385.00
339.07	3358.00
339.54	3294.00
340.01	3335.00
340.49	3278.00
340.96	3321.00
341.43	3358.00
341.90	3267.00
342.37	3324.00
342.84	3328.00
343.31	3286.00
343.78	3298.00
344.25	3306.00
344.72	3300.00
345.19	3275.00
345.66	3296.00
346.13	3267.00
346.60	3279.00
347.07	3358.00
347.54	3282.00
348.01	3335.00
348.48	3283.00
348.95	3249.00
349.42	3282.00
349.89	3337.00
350.36	3324.00
350.83	3218.00
351.30	3301.00
351.77	3358.00
352.24	3314.00
352.71	3285.00
353.18	3276.00
353.65	3295.00
354.12	3313.00
354.59	3316.00
355.06	3296.00
355.53	3322.00
356.00	3273.00
356.47	3363.00
356.94	3246.00
357.41	3419.00
357.88	3351.00
358.35	3264.00
358.82	3274.00
359.28	3293.00
359.75	3267.00
360.22	3346.00
360.69	3367.00
361.16	3287.00
361.63	3297.00
362.10	3282.00
362.57	3325.00
363.04	3306.00
363.51	3365.00
363.98	3287.00
364.45	3254.00
364.92	3349.00
365.39	3343.00
365.86	3275.00
366.32	3336.00
366.79	3315.00
367.26	3928.00
367.73	3283.00
368.20	3320.00
368.67	3329.00
369.14	3276.00
369.61	3339.00
370.08	3337.00
370.55	3331.00
371.02	3824.00
371.48	3318.00
371.95	3274.00
372.42	3287.00
372.89	3322.00
373.36	3325.00
373.83	3273.00
374.30	3321.00
374.77	3329.00
375.23	3270.00
375.70	3400.00
376.17	3313.00
376.64	3320.00
377.11	3325.00
377.58	3350.00
378.05	3340.00
378.51	3348.00
378.98	3327.00
379.45	3351.00
379.92	3356.00
380.39	3470.00
380.86	3327.00
381.33	3386.00
381.79	3437.00
382.26	3314.00
382.73	3329.00
383.20	3355.00
383.67	3385.00
384.14	3332.00
384.60	3529.00
385.07	3362.00
385.54	3339.00
386.01	3343.00
386.48	3411.00
386.94	3343.00
387.41	3329.00
387.88	3400.00
388.35	3353.00
388.82	3378.00
389.28	3359.00
389.75	3410.00
390.22	3407.00
390.69	3364.00
391.16	3355.00
391.62	3416.00
392.09	3412.00
392.56	3336.00
393.03	3385.00
393.50	3463.00
393.96	3380.00
394.43	3450.00
394.90	3370.00
395.37	3468.00
395.83	3579.00
396.30	3381.00
396.77	3442.00
397.24	3440.00
397.70	3406.00
398.17	3454.00
398.64	3426.00
399.11	3445.00
399.57	3493.00
400.04	3405.00
400.51	3483.00
400.98	3459.00
401.44	3510.00
401.91	3519.00
402.38	3551.00
402.84	3489.00
403.31	3553.00
403.78	3542.00
404.25	3574.00
404.71	3659.00
405.18	3567.00
405.65	3541.00
406.12	3564.00
406.58	3563.00
407.05	3707.00
407.52	3599.00
407.98	4168.00
408.45	3602.00
408.92	3557.00
409.38	3633.00
409.85	3552.00
410.32	3623.00
410.78	3564.00
411.25	3659.00
411.72	3585.00
412.18	3632.00
412.65	3666.00
413.12	3657.00
413.59	3704.00
414.05	3668.00
414.52	3754.00
414.98	3673.00
415.45	3731.00
415.92	3737.00
416.38	3699.00
416.85	3796.00
417.32	3705.00
417.78	3675.00
418.25	3715.00
418.72	3709.00
419.18	3755.00
419.65	3645.00
420.12	3776.00
420.58	3680.00
421.05	3752.00
421.51	3710.00
421.98	3766.00
422.45	3704.00
422.91	3765.00
423.38	3781.00
423.85	3787.00
424.31	3711.00
424.78	3782.00
425.24	3743.00
425.71	3810.00
426.18	3692.00
426.64	3785.00
427.11	3760.00
427.57	3729.00
428.04	3704.00
428.51	3725.00
428.97	3716.00
429.44	3683.00
429.90	3671.00
430.37	3762.00
430.83	3661.00
431.30	3708.00
431.77	3837.00
432.23	3876.00
432.70	3786.00
433.16	3748.00
433.63	3793.00
434.09	3752.00
434.56	3823.00
435.03	3794.00
435.49	3863.00
435.96	3840.00
436.42	3836.00
436.89	3925.00
437.35	3874.00
437.82	3854.00
438.28	3791.00
438.75	3819.00
439.21	3964.00
439.68	3853.00
440.14	3920.00
440.61	3899.00
441.07	3887.00
441.54	3939.00
442.00	4020.00
442.47	3935.00
442.94	3957.00
443.40	3986.00
443.87	3963.00
444.33	4061.00
444.80	4001.00
445.26	3986.00
445.73	4019.00
446.19	4043.00
446.65	4076.00
447.12	4067.00
447.58	4111.00
448.05	4088.00
448.51	4175.00
448.98	4168.00
449.44	4165.00
449.91	4157.00
450.37	4209.00
450.84	4258.00
451.30	4243.00
451.77	4237.00
452.23	4185.00
452.70	4272.00
453.16	4255.00
453.62	4218.00
454.09	4271.00
454.55	4303.00
455.02	4302.00
455.48	4351.00
455.95	4413.00
456.41	4341.00
456.88	4432.00
457.34	4364.00
457.80	4356.00
458.27	4297.00
458.73	4341.00
459.20	4373.00
459.66	4394.00
460.13	4387.00
460.59	4357.00
461.05	4437.00
461.52	4440.00
461.98	4364.00
462.45	4388.00
462.91	4416.00
463.37	4354.00
463.84	4338.00
464.30	4353.00
464.76	4330.00
465.23	4319.00
465.69	4383.00
466.16	4344.00
466.62	4361.00
467.08	4337.00
467.55	4364.00
468.01	4379.00
468.48	4434.00
468.94	4342.00
469.40	4321.00
469.87	4308.00
470.33	4337.00
470.79	4310.00
471.26	4365.00
471.72	4339.00
472.18	4412.00
472.65	4413.00
473.11	4459.00
473.57	4346.00
474.04	4407.00
474.50	4450.00
474.96	4415.00
475.43	4432.00
475.89	4415.00
476.35	4446.00
476.82	4475.00
477.28	4544.00
477.74	4568.00
478.21	4489.00
478.67	4535.00
479.13	4471.00
479.59	4539.00
480.06	4545.00
480.52	4563.00
480.98	4532.00
481.45	4587.00
481.91	4615.00
482.37	4526.00
482.84	4518.00
483.30	4486.00
483.76	4550.00
484.22	4640.00
484.69	4552.00
485.15	4470.00
485.61	4308.00
486.07	4335.00
486.54	4328.00
487.00	4497.00
487.46	4489.00
487.92	4553.00
488.39	4598.00
488.85	4647.00
489.31	4708.00
489.77	4752.00
490.24	4637.00
490.70	4759.00
491.16	4722.00
491.62	4712.00
492.09	4701.00
492.55	4794.00
493.01	4857.00
493.47	4863.00
493.94	4896.00
494.40	4952.00
494.86	4985.00
495.32	5037.00
495.78	5099.00
496.25	5097.00
496.71	5151.00
497.17	5255.00
497.63	5251.00
498.09	5185.00
498.56	5277.00
499.02	5391.00
499.48	5512.00
499.94	5497.00
500.40	5434.00
500.87	5533.00
501.33	5602.00
501.79	5668.00
502.25	5783.00
502.71	6288.00
503.17	6044.00
503.64	6099.00
504.10	6119.00
504.56	6275.00
505.02	6506.00
505.48	6713.00
505.94	6782.00
506.40	6889.00
506.87	6987.00
507.33	7089.00
507.79	7220.00
508.25	7299.00
508.71	7608.00
509.17	7669.00
509.63	7814.00
510.10	7993.00
510.56	8206.00
511.02	8531.00
511.48	8815.00
511.94	8825.00
512.40	8945.00
512.86	9180.00
513.32	9286.00
513.78	9323.00
514.25	9660.00
514.71	10506.00
515.17	10217.00
515.63	10515.00
516.09	10410.00
516.55	10006.00
517.01	10325.00
517.47	10857.00
517.93	11102.00
518.39	11461.00
518.85	11797.00
519.32	12365.00
519.78	12862.00
520.24	13202.00
520.70	13563.00
521.16	13950.00
521.62	14259.00
522.08	14421.00
522.54	14332.00
523.00	14849.00
523.46	15503.00
523.92	16005.00
524.38	16262.00
524.84	16443.00
525.30	16585.00
525.76	16618.00
526.22	16044.00
526.68	15908.00
527.14	16592.00
527.60	17392.00
528.06	17909.00
528.52	18512.00
528.98	18989.00
529.44	18859.00
529.90	18916.00
530.36	19478.00
530.82	19724.00
531.28	19968.00
531.74	19652.00
532.20	19348.00
532.66	19103.00
533.12	19659.00
533.58	20053.00
534.04	20044.00
534.50	20317.00
534.96	20896.00
535.42	21158.00
535.88	21101.00
536.34	20835.00
536.80	20520.00
537.26	20912.00
537.72	21340.00
538.18	21309.00
538.64	21670.00
539.10	21165.00
539.56	21085.00
540.02	20903.00
540.48	20697.00
540.94	21090.00
541.40	21517.00
541.86	21733.00
542.32	21764.00
542.78	21520.00
543.24	21947.00
543.69	22169.00
544.15	22363.00
544.61	22252.00
545.07	22398.00
545.53	22362.00
545.99	22543.00
546.45	22444.00
546.91	22485.00
547.37	22311.00
547.83	22353.00
548.29	22603.00
548.74	22766.00
549.20	22900.00
549.66	23128.00
550.12	22950.00
550.58	23001.00
551.04	23010.00
551.50	23341.00
551.96	23628.00
552.42	23414.00
552.87	23185.00
553.33	23305.00
553.79	23476.00
554.25	23446.00
554.71	23658.00
555.17	23543.00
555.63	23349.00
556.08	23252.00
556.54	22969.00
557.00	22781.00
557.46	22900.00
557.92	22923.00
558.38	22647.00
558.83	22153.00
559.29	22037.00
559.75	22142.00
560.21	22251.00
560.67	22774.00
561.13	22563.00
561.58	22134.00
562.04	22119.00
562.50	22023.00
562.96	22283.00
563.42	21992.00
563.87	21724.00
564.33	21713.00
564.79	21530.00
565.25	21297.00
565.71	20736.00
566.16	20604.00
566.62	20925.00
567.08	20932.00
567.54	20779.00
568.00	20358.00
568.45	20035.00
568.91	19852.00
569.37	19836.00
569.83	19583.00
570.28	19312.00
570.74	18810.00
571.20	18704.00
571.66	18914.00
572.11	19124.00
572.57	19128.00
573.03	18786.00
573.49	18567.00
573.94	18532.00
574.40	18216.00
574.86	17993.00
575.32	17416.00
575.77	17545.00
576.23	17422.00
576.69	17562.00
577.15	17324.00
577.60	17072.00
578.06	16749.00
578.52	16745.00
578.97	16612.00
579.43	16675.00
579.89	16754.00
580.34	16590.00
580.80	16491.00
581.26	16493.00
581.72	16468.00
582.17	16476.00
582.63	16394.00
583.09	16352.00
583.54	16256.00
584.00	16169.00
584.46	16015.00
584.91	15916.00
585.37	15658.00
585.83	15352.00
586.28	15396.00
586.74	15471.00
587.20	15584.00
587.65	15370.00
588.11	14935.00
588.57	14403.00
589.02	13676.00
589.48	13695.00
589.94	14160.00
590.39	14600.00
590.85	14457.00
591.30	14553.00
591.76	14545.00
592.22	14394.00
592.67	14485.00
593.13	14356.00
593.59	14483.00
594.04	14378.00
594.50	14085.00
594.95	14129.00
595.41	14184.00
595.87	14394.00
596.32	14338.00
596.78	14337.00
597.23	14303.00
597.69	14074.00
598.15	14065.00
598.60	14131.00
599.06	14201.00
599.51	14199.00
599.97	14045.00
600.43	14042.00
600.88	13970.00
601.34	13925.00
601.79	13703.00
602.25	13757.00
602.70	13862.00
603.16	14017.00
603.61	14018.00
604.07	13839.00
604.53	13905.00
604.98	13836.00
605.44	13671.00
605.89	13628.00
606.35	13430.00
606.80	13481.00
607.26	13508.00
607.71	13277.00
608.17	13126.00
608.62	13073.00
609.08	13183.00
609.53	13028.00
609.99	12747.00
610.44	12643.00
610.90	12776.00
611.35	12664.00
611.81	12642.00
612.26	12460.00
612.72	12349.00
613.17	12389.00
613.63	12016.00
614.08	11887.00
614.54	11976.00
614.99	11896.00
615.45	11887.00
615.90	11633.00
616.36	11468.00
616.81	11468.00
617.27	11534.00
617.72	11582.00
618.18	11601.00
618.63	11486.00
619.09	11348.00
619.54	11434.00
619.99	11478.00
620.45	11471.00
620.90	11494.00
621.36	11127.00
621.81	11258.00
622.27	11233.00
622.72	11116.00
623.18	11017.00
623.63	11012.00
624.08	10978.00
624.54	10856.00
624.99	10890.00
625.45	10709.00
625.90	10762.00
626.35	11029.00
626.81	10981.00
627.26	10877.00
627.72	10652.00
628.17	10622.00
628.62	10723.00
629.08	10729.00
629.53	10752.00
629.99	10596.00
630.44	10822.00
630.89	10642.00
631.35	10696.00
631.80	10683.00
632.26	10693.00
632.71	10797.00
633.16	10737.00
633.62	10549.00
634.07	10589.00
634.52	10596.00
634.98	10731.00
635.43	10497.00
635.88	10318.00
636.34	10256.00
636.79	10334.00
637.24	10305.00
637.70	10355.00
638.15	10173.00
638.60	10094.00
639.06	9990.00
639.51	9810.00
639.96	9566.00
640.42	9623.00
640.87	9461.00
641.32	9339.00
641.78	9136.00
642.23	9169.00
642.68	9033.00
643.14	9024.00
643.59	8832.00
644.04	8788.00
644.49	8674.00
644.95	8524.00
645.40	8383.00
645.85	8250.00
646.31	8110.00
646.76	8082.00
647.21	7946.00
647.66	7962.00
648.12	7759.00
648.57	7679.00
649.02	7740.00
649.47	7382.00
649.93	7651.00
650.38	7526.00
650.83	7586.00
651.28	7424.00
651.74	7378.00
652.19	7322.00
652.64	7329.00
653.09	7278.00
653.55	7280.00
654.00	7238.00
654.45	7195.00
654.90	7054.00
655.35	6925.00
655.81	6661.00
656.26	6288.00
656.71	6382.00
657.16	6704.00
657.62	6767.00
658.07	6692.00
658.52	6705.00
658.97	6641.00
659.42	6715.00
659.88	6509.00
660.33	6570.00
660.78	6342.00
661.23	6265.00
661.68	6221.00
662.13	6246.00
662.59	6084.00
663.04	6043.00
663.49	5903.00
663.94	5796.00
664.39	5826.00
664.84	5725.00
665.30	5754.00
665.75	5655.00
666.20	5574.00
666.65	5568.00
667.10	5589.00
667.55	5418.00
668.00	5403.00
668.46	5354.00
668.91	5281.00
669.36	5398.00
669.81	5219.00
670.26	5232.00
670.71	5231.00
671.16	5166.00
671.61	5168.00
672.06	5206.00
672.52	5152.00
672.97	5162.00
673.42	5185.00
673.87	5167.00
674.32	5067.00
674.77	5052.00
675.22	5009.00
675.67	5045.00
676.12	5019.00
676.57	4996.00
677.02	5027.00
677.47	5060.00
677.93	5131.00
678.38	4988.00
678.83	5048.00
679.28	5079.00
679.73	5100.00
680.18	5102.00
680.63	5086.00
681.08	5104.00
681.53	5125.00
681.98	5183.00
682.43	5246.00
682.88	5338.00
683.33	5393.00
683.78	5401.00
684.23	5585.00
684.68	5631.00
685.13	5756.00
685.58	5842.00
686.03	5874.00
686.48	5799.00
686.93	5660.00
687.38	5679.00
687.83	6115.00
688.28	6483.00
688.73	6798.00
689.18	6917.00
689.63	7182.00
690.08	7637.00
690.53	7960.00
690.98	8349.00
691.43	8926.00
691.88	9372.00
692.33	9860.00
692.78	10356.00
693.23	10908.00
693.68	11421.00
694.13	11911.00
694.58	12586.00
695.03	13453.00
695.48	13993.00
695.93	14690.00
696.38	15708.00
696.83	16581.00
697.28	17182.00
697.72	17667.00
698.17	18304.00
698.62	19051.00
699.07	19819.00
699.52	20478.00
699.97	21131.00
700.42	21725.00
700.87	22605.00
701.32	23374.00
701.77	23871.00
702.22	24583.00
702.67	25074.00
703.11	26269.00
703.56	27120.00
704.01	28010.00
704.46	29059.00
704.91	29741.00
705.36	30059.00
705.81	30799.00
706.26	31222.00
706.70	32043.00
707.15	32717.00
707.60	33538.00
708.05	34172.00
708.50	34840.00
708.95	35294.00
709.40	35911.00
709.84	36551.00
710.29	37056.00
710.74	37734.00
711.19	38197.00
711.64	38814.00
712.09	39244.00
712.53	39964.00
712.98	40343.00
713.43	40732.00
713.88	41295.00
714.33	41468.00
714.78	41629.00
715.22	41911.00
715.67	42475.00
716.12	42239.00
716.57	40878.00
717.02	39442.00
717.46	38420.00
717.91	38186.00
718.36	37372.00
718.81	37103.00
719.26	37335.00
719.70	37968.00
720.15	38688.00
720.60	40131.00
721.05	43141.00
721.49	45710.00
721.94	46389.00
722.39	46328.00
722.84	45675.00
723.28	44031.00
723.73	43453.00
724.18	43704.00
724.63	44543.00
725.07	44822.00
725.52	45591.00
725.97	46167.00
726.42	46549.00
726.86	47870.00
727.31	47216.00
727.76	46949.00
728.21	48420.00
728.65	48237.00
729.10	47968.00
729.55	49213.00
729.99	50278.00
730.44	50901.00
730.89	51310.00
731.33	52330.00
731.78	53360.00
732.23	54836.00
732.68	55812.00
733.12	56832.00
733.57	57617.00
734.02	58928.00
734.46	59473.00
734.91	59604.00
735.36	59539.00
735.80	60228.00
736.25	60199.00
736.70	60714.00
737.14	61559.00
737.59	61840.00
738.04	62120.00
738.48	61643.00
738.93	61393.00
739.37	62270.00
739.82	63369.00
740.27	63907.00
740.71	63700.00
741.16	63644.00
741.61	63652.00
742.05	63784.00
742.50	64000.00
742.94	64000.00
743.39	64000.00
743.84	64000.00
744.28	64000.00
744.73	64000.00
745.18	64000.00
745.62	64000.00
746.07	64000.00
746.51	64000.00
746.96	64000.00
747.40	64000.00
747.85	64000.00
748.30	64000.00
748.74	64000.00
749.19	64000.00
749.63	64000.00
750.08	64000.00
750.52	64000.00
750.97	64000.00
751.42	64000.00
751.86	64000.00
752.31	64000.00
752.75	64000.00
753.20	64000.00
753.64	64000.00
754.09	64000.00
754.53	64000.00
754.98	64000.00
755.42	64000.00
755.87	64000.00
756.31	64000.00
756.76	64000.00
757.20	64000.00
757.65	64000.00
758.09	63311.00
758.54	61658.00
758.98	56059.00
759.43	44590.00
759.87	31812.00
760.32	23041.00
760.76	21765.00
761.21	26490.00
761.65	33848.00
762.10	36310.00
762.54	34612.00
762.99	32251.00
763.43	32943.00
763.88	35174.00
764.32	38081.00
764.77	41619.00
765.21	44781.00
765.66	47905.00
766.10	50358.00
766.54	52804.00
766.99	55405.00
767.43	57364.00
767.88	58766.00
768.32	60519.00
768.77	61078.00
769.21	62219.00
769.66	62991.00
770.10	63560.00
770.54	64000.00
770.99	64000.00
771.43	64000.00
771.88	63862.00
772.32	63922.00
772.76	63644.00
773.21	63697.00
773.65	63566.00
774.10	63208.00
774.54	63076.00
774.98	63288.00
775.43	63904.00
775.87	64000.00
776.31	64000.00
776.76	64000.00
777.20	64000.00
777.65	63572.00
778.09	63216.00
778.53	63338.00
778.98	62875.00
779.42	62797.00
779.86	62890.00
780.31	62749.00
780.75	63132.00
781.19	63288.00
781.64	63540.00
782.08	63847.00
782.52	63207.00
782.97	62772.00
783.41	61922.00
783.85	61608.00
784.30	61456.00
784.74	61011.00
785.18	61343.00
785.63	61239.00
786.07	61167.00
786.51	61367.00
786.95	61360.00
787.40	61402.00
787.84	60952.00
788.28	60468.00
788.73	59920.00
789.17	59512.00
789.61	58741.00
790.05	58525.00
790.50	58260.00
790.94	58005.00
791.38	58025.00
791.82	58210.00
792.27	58371.00
792.71	58610.00
793.15	58748.00
793.59	58377.00
794.04	57696.00
794.48	57452.00
794.92	56923.00
795.36	56722.00
795.81	56410.00
796.25	56008.00
796.69	56458.00
797.13	56985.00
797.57	57544.00
798.02	57964.00
798.46	58126.00
798.90	57889.00
799.34	57153.00
799.79	56326.00
800.23	55627.00
800.67	55198.00
801.11	55043.00
801.55	55049.00
801.99	54681.00
802.44	55078.00
802.88	55143.00
803.32	55746.00
803.76	56043.00
804.20	56086.00
804.64	56127.00
805.09	55864.00
805.53	55634.00
805.97	55091.00
806.41	54799.00
806.85	54105.00
807.29	53501.00
807.74	53692.00
808.18	53680.00
808.62	53457.00
809.06	53381.00
809.50	53806.00
809.94	53713.00
810.38	53907.00
810.82	53632.00
811.27	53335.00
811.71	52149.00
812.15	51316.00
812.59	49790.00
813.03	48560.00
813.47	47118.00
813.91	45925.00
814.35	45124.00
814.79	44839.00
815.23	44588.00
815.67	43733.00
816.12	44164.00
816.56	43784.00
817.00	44176.00
817.44	44406.00
817.88	44499.00
818.32	43705.00
818.76	44009.00
819.20	43794.00
819.64	44285.00
820.08	44855.00
820.52	46052.00
820.96	47291.00
821.40	46386.00
821.84	45276.00
822.28	42510.00
822.72	41776.00
823.16	41540.00
823.60	43559.00
824.04	46609.00
824.48	47400.00
824.92	47573.00
825.36	47441.00
825.80	46792.00
826.24	46360.00
826.68	46065.00
827.12	45733.00
827.56	45224.00
828.00	45058.00
828.44	45314.00
828.88	46226.00
829.32	46516.00
829.76	46505.00
830.20	47149.00
830.64	46609.00
831.08	46065.00
831.52	45459.00
831.96	45141.00
832.40	44443.00
832.84	45120.00
833.28	45487.00
833.72	46451.00
834.16	47074.00
834.60	48522.00
835.04	49181.00
835.48	49386.00
835.91	49228.00
836.35	48848.00
836.79	48562.00
837.23	48283.00
837.67	47549.00
838.11	47371.00
838.55	47680.00
838.99	47593.00
839.43	48152.00
839.87	48974.00
840.30	49429.00
840.74	50140.00
841.18	50519.00
841.62	50740.00
842.06	50610.00
842.50	50348.00
842.94	49822.00
843.38	48925.00
843.81	48044.00
844.25	47654.00
844.69	47380.00
845.13	47240.00
845.57	47690.00
846.01	47874.00
846.45	48359.00
846.88	49088.00
847.32	49727.00
847.76	50424.00
848.20	50353.00
848.64	49712.00
849.08	48758.00
849.51	48477.00
849.95	47333.00
850.39	47204.00
850.83	47689.00
851.27	47681.00
851.70	46922.00
852.14	46444.00
852.58	46175.00
853.02	44709.00
853.46	43006.00
853.89	43229.00
854.33	43157.00
854.77	44814.00
855.21	47580.00
855.65	49114.00
856.08	49665.00
856.52	49581.00
856.96	49326.00
857.40	48532.00
857.83	47401.00
858.27	46801.00
858.71	45895.00
859.15	46064.00
859.58	46460.00
860.02	46915.00
860.46	47213.00
860.89	48369.00
861.33	48973.00
861.77	49364.00
862.21	49804.00
862.64	49748.00
863.08	49502.00
863.52	49258.00
863.95	48057.00
864.39	47182.00
864.83	45628.00
865.27	43434.00
865.70	42888.00
866.14	42529.00
866.58	42048.00
867.01	44523.00
867.45	46232.00
867.89	47165.00
868.32	48150.00
868.76	48620.00
869.20	48773.00
869.63	48719.00
870.07	47962.00
870.51	46537.00
870.94	45760.00
871.38	44721.00
871.82	43880.00
872.25	43932.00
872.69	43817.00
873.13	44360.00
873.56	44928.00
874.00	45596.00
874.43	46212.00
874.87	46944.00
875.31	47093.00
875.74	47468.00
876.18	47900.00
876.61	47560.00
877.05	47140.00
877.49	46347.00
877.92	45630.00
878.36	45076.00
878.79	44173.00
879.23	43208.00
879.67	42674.00
880.10	42710.00
880.54	43020.00
880.97	43406.00
881.41	44715.00
881.84	45943.00
882.28	46788.00
882.72	47460.00
883.15	48009.00
883.59	48103.00
884.02	47609.00
884.46	47475.00
884.89	46157.00
885.33	45353.00
885.76	43908.00
886.20	43247.00
886.63	42354.00
887.07	42299.00
887.50	42550.00
887.94	42809.00
888.37	43174.00
888.81	44004.00
889.24	44243.00
889.68	44812.00
890.11	45518.00
890.55	45875.00
890.98	46245.00
891.42	46430.00
891.85	45976.00
892.29	45183.00
892.72	43983.00
893.16	42674.00
893.59	41304.00
894.03	40371.00
894.46	38964.00
894.90	37887.00
895.33	36315.00
895.77	36115.00
896.20	35912.00
896.63	36029.00
897.07	36687.00
897.50	36135.00
897.94	36338.00
898.37	37865.00
898.81	35709.00
899.24	34630.00
899.68	36836.00
900.11	36062.00
900.54	34918.00
900.98	34305.00
901.41	34037.00
901.85	34229.00
902.28	34610.00
902.71	35104.00
903.15	36333.00
903.58	37785.00
904.02	37686.00
904.45	37906.00
904.88	37859.00
905.32	37498.00
905.75	37428.00
906.18	36158.00
906.62	36320.00
907.05	35316.00
907.48	35494.00
907.92	34778.00
908.35	35023.00
908.79	34119.00
909.22	33692.00
909.65	33185.00
910.09	33130.00
910.52	32518.00
910.95	32878.00
911.38	33438.00
911.82	32052.00
912.25	32788.00
912.68	33691.00
913.12	33608.00
913.55	33630.00
913.98	34759.00
914.42	35798.00
914.85	36509.00
915.28	34583.00
915.72	33898.00
916.15	33598.00
916.58	33445.00
917.01	32836.00
917.45	31582.00
917.88	32553.00
918.31	32995.00
918.74	34507.00
919.18	35082.00
919.61	35149.00
920.04	36090.00
920.47	36083.00
920.91	36522.00
921.34	36504.00
921.77	36765.00
922.20	37275.00
922.64	37218.00
923.07	36783.00
923.50	36231.00
923.93	35550.00
924.37	35030.00
924.80	34370.00
925.23	33803.00
925.66	32918.00
926.09	31361.00
926.53	30758.00
926.96	29734.00
927.39	28654.00
927.82	27154.00
928.25	26005.00
928.69	25219.00
929.12	25008.00
929.55	23779.00
929.98	22710.00
930.41	21271.00
930.84	20024.00
931.28	18718.00
931.71	17047.00
932.14	15224.00
932.57	14233.00
933.00	13773.00
933.43	13013.00
933.86	12346.00
934.30	11632.00
934.73	13198.00
935.16	12803.00
935.59	11757.00
936.02	12581.00
936.45	12264.00
936.88	12183.00
937.31	13446.00
937.75	14113.00
938.18	15024.00
938.61	15662.00
939.04	16472.00
939.47	16231.00
939.90	15043.00
940.33	14443.00
940.76	13487.00
941.19	12696.00
941.62	12342.00
942.05	12400.00
942.48	11025.00
942.91	10797.00
943.35	11949.00
943.78	11103.00
944.21	10789.00
944.64	11826.00
945.07	12177.00
945.50	11911.00
945.93	12090.00
946.36	12729.00
946.79	13046.00
947.22	13842.00
947.65	13670.00
948.08	12864.00
948.51	13680.00
948.94	14333.00
949.37	13609.00
949.80	12846.00
950.23	13248.00
950.66	13858.00
951.09	13888.00
951.52	13222.00
951.95	13333.00
952.38	13811.00
952.81	14696.00
953.24	15629.00
953.67	16039.00
954.10	15603.00
954.53	16516.00
954.96	16167.00
955.39	16504.00
955.82	17761.00
956.25	17104.00
956.68	17090.00
957.11	17786.00
957.53	17199.00
957.96	16895.00
958.39	16699.00
958.82	16009.00
959.25	16522.00
959.68	17565.00
960.11	17750.00
960.54	17895.00
960.97	19051.00
961.40	19736.00
961.83	19712.00
962.26	19860.00
962.68	21575.00
963.11	22060.00
963.54	22101.00
963.97	22497.00
964.40	22140.00
964.83	22560.00
965.26	22882.00
965.69	22614.00
966.11	22183.00
966.54	22583.00
966.97	23514.00
967.40	23927.00
967.83	23904.00
968.26	23971.00
968.69	24199.00
969.11	24407.00
969.54	24213.00
969.97	24250.00
970.40	25080.00
970.83	24940.00
971.26	25360.00
971.68	25408.00
972.11	25356.00
972.54	25841.00
972.97	25572.00
973.40	25162.00
973.82	25121.00
974.25	24853.00
974.68	24592.00
975.11	24179.00
975.54	23694.00
975.96	23269.00
976.39	23490.00
976.82	23806.00
977.25	23302.00
977.67	23315.00
978.10	23554.00
978.53	23983.00
978.96	24568.00
979.38	24961.00
979.81	25294.00
980.24	26301.00
980.67	26681.00
981.09	27044.00
981.52	27370.00
981.95	27460.00
982.38	27473.00
982.80	27686.00
983.23	27969.00
983.66	27982.00
984.08	27850.00
984.51	27403.00
984.94	27066.00
985.37	26702.00
985.79	26141.00
986.22	25737.00
986.65	25391.00
987.07	25150.00
987.50	25084.00
987.93	25046.00
988.35	25380.00
988.78	25719.00
989.21	25862.00
989.63	26186.00
990.06	26694.00
990.49	27242.00
990.91	27466.00
991.34	27770.00
991.77	27790.00
992.19	27672.00
992.62	27520.00
993.05	27308.00
993.47	27004.00
993.90	26698.00
994.32	26184.00
994.75	25600.00
995.18	25280.00
995.60	25011.00
996.03	24530.00
996.45	24457.00
996.88	24178.00
997.31	24128.00
997.73	24119.00
998.16	24137.00
998.58	24397.00
999.01	24624.00
999.44	24935.00
999.86	25115.00
1000.29	25137.00
1000.71	25441.00
1001.14	25592.00
1001.56	25537.00
1001.99	25272.00
1002.41	24807.00
1002.84	24130.00
1003.27	23617.00
1003.69	23140.00
1004.12	22678.00
1004.54	22154.00
1004.97	21962.00
1005.39	21786.00
1005.82	21672.00
1006.24	21709.00
1006.67	21471.00
1007.09	21437.00
1007.52	21442.00
1007.94	21479.00
1008.37	21649.00
1008.79	21516.00
1009.22	21563.00
1009.64	21741.00
1010.07	21844.00
1010.49	21895.00
1010.92	22005.00
1011.34	21999.00
1011.77	21861.00
1012.19	21720.00
1012.62	21554.00
1013.04	21008.00
1013.46	20788.00
1013.89	20177.00
1014.31	19952.00
1014.74	19535.00
1015.16	19363.00
1015.59	19190.00
1016.01	19229.00
1016.44	19363.00
1016.86	20332.00
1017.28	19653.00
1017.71	19588.00
1018.13	19996.00
1018.56	20132.00
1018.98	20300.00
1019.40	20232.00
1019.83	20422.00
1020.25	20678.00
1020.68	20664.00
1021.10	20863.00
1021.52	20992.00
1021.95	21218.00
1022.37	20832.00
1022.79	20821.00
1023.22	20766.00
1023.64	20334.00
1024.07	20150.00
1024.49	19959.00
1024.91	19578.00
1025.34	19412.00
1025.76	19256.00
1026.18	19078.00
1026.61	18911.00
1027.03	18871.00
1027.45	18926.00
1027.88	19232.00
1028.30	19235.00
1028.72	19244.00
1029.15	19351.00
1029.57	19400.00
1029.99	19506.00
1030.41	19462.00
1030.84	19322.00
1031.26	19265.00
1031.68	19147.00
1032.11	18879.00
1032.53	18706.00
1032.95	18451.00
1033.37	18134.00
1033.80	17788.00
1034.22	17610.00
1034.64	17361.00
1035.06	16919.00
1035.49	16680.00
1035.91	16548.00
1036.33	16270.00
1036.75	16168.00
1037.18	16097.00
1037.60	15974.00
1038.02	15975.00
1038.44	16061.00
1038.87	16071.00
1039.29	16159.00
1039.71	16020.00
1040.13	16083.00
1040.55	16287.00
1040.98	16061.00
1041.40	15818.00
1041.82	15822.00
1042.24	15706.00
1042.66	15424.00
1043.09	15177.00
1043.51	14933.00
1043.93	14769.00
1044.35	14458.00
1044.77	14250.00
1045.20	14077.00
1045.62	13809.00
1046.04	13725.00
1046.46	13514.00
1046.88	13453.00
1047.30	13291.00
1047.72	13165.00
1048.15	13020.00
1048.57	12921.00
1048.99	12876.00
1049.41	12814.00
1049.83	13016.00
1050.25	12917.00
1050.67	12777.00
1051.09	12680.00
1051.52	12701.00
1051.94	12536.00
1052.36	12504.00
1052.78	12430.00
1053.20	12321.00
1053.62	12262.00
1054.04	12049.00
1054.46	12029.00
1054.88	11898.00
1055.30	11825.00
1055.72	11504.00
1056.14	11448.00
1056.57	11397.00
1056.99	11041.00
1057.41	10943.00
1057.83	10742.00
1058.25	10655.00
1058.67	10450.00
1059.09	10388.00
1059.51	10463.00
1059.93	10231.00
1060.35	10086.00
1060.77	10069.00
1061.19	9933.00
1061.61	9924.00
1062.03	9902.00
1062.45	9857.00
1062.87	9793.00
1063.29	9680.00
1063.71	9757.00
1064.13	9645.00
1064.55	9496.00
1064.97	9570.00
1065.39	9523.00
1065.81	9403.00
1066.23	9286.00
1066.65	9156.00
1067.07	9149.00
1067.49	8983.00
1067.91	8830.00
1068.33	8791.00
1068.75	8714.00
1069.17	8693.00
1069.59	8510.00
1070.00	8403.00
1070.42	8424.00
1070.84	8277.00
1071.26	8204.00
1071.68	8065.00
1072.10	8187.00
1072.52	8042.00
1072.94	8007.00
1073.36	8002.00
1073.78	7926.00
1074.20	7973.00
1074.62	7909.00
1075.03	7810.00
1075.45	7839.00
1075.87	7858.00
1076.29	7770.00
1076.71	7817.00
1077.13	7775.00
1077.55	7610.00
1077.97	7638.00
1078.38	7420.00
1078.80	7394.00
1079.22	7378.00
1079.64	7217.00
1080.06	7123.00
1080.48	7103.00
1080.89	6985.00
1081.31	6898.00
1081.73	6875.00
1082.15	6745.00
1082.57	6754.00
1082.99	6709.00
1083.40	6612.00
1083.82	6686.00
1084.24	6595.00
1084.66	6513.00
1085.08	6530.00
1085.49	6453.00
1085.91	6506.00
1086.33	7495.00
1086.75	6451.00
1087.17	6407.00
1087.58	6421.00
1088.00	6348.00
1088.42	6377.00
1088.84	6277.00
1089.25	6059.00
1089.67	6203.00
1090.09	6068.00
1090.51	5954.00
1090.92	5885.00
1091.34	5768.00
1091.76	5663.00
1092.18	5650.00
1092.59	5612.00
1093.01	5450.00
1093.43	5509.00
1093.84	5490.00
1094.26	5427.00
1094.68	5408.00
1095.10	5334.00
1095.51	5326.00
1095.93	5286.00
1096.35	5254.00
1096.76	5238.00
1097.18	5217.00
1097.60	5175.00
1098.01	5153.00
1098.43	5064.00
1098.85	5053.00
1099.26	4969.00
1099.68	4958.00
1100.10	4853.00
1100.51	4784.00
1100.93	4695.00
1101.35	4669.00
1101.76	4667.00
1102.18	4973.00
1102.60	4613.00
1103.01	4471.00
1103.43	4542.00
1103.84	4495.00
1104.26	4449.00
1104.68	4475.00
1105.09	4381.00
1105.51	4340.00
1105.92	4404.00
1106.34	4257.00
1106.76	4341.00
1107.17	4167.00
1107.59	4196.00
1108.00	4022.00
1108.42	4094.00
1108.83	3971.00
1109.25	3981.00
1109.67	3850.00
1110.08	3928.00
1110.50	3885.00
1110.91	3911.00
1111.33	3765.00
1111.74	3723.00
1112.16	3709.00
1112.57	3682.00
1112.99	3548.00
1113.41	3567.00
1113.82	3514.00
1114.24	3471.00
1114.65	3377.00
1115.07	3274.00
1115.48	3165.00
1115.90	2180.00
1116.31	2209.00
1116.73	2202.00
1117.14	2201.00
>>>>>End Processed Spectral Data<<<<<
