SpectraSuite Data File
++++++++++++++++++++++++++++++++++++
Date: Tue May 29 13:10:16 EEST 2018
User: CanSEE
Dark Spectrum Present: No
Reference Spectrum Present: No
Number of Sampled Component Spectra: 1
Spectrometers: MAYP11278
Integration Time (usec): 230000 (MAYP11278)
Spectra Averaged: 1 (MAYP11278)
Boxcar Smoothing: 0 (MAYP11278)
Correct for Electrical Dark: No (MAYP11278)
Strobe/Lamp Enabled: No (MAYP11278)
Correct for Detector Non-linearity: No (MAYP11278)
Correct for Stray Light: No (MAYP11278)
Number of Pixels in Processed Spectrum: 2068
>>>>>Begin Processed Spectral Data<<<<<
187.82	2340.00
188.30	2235.00
188.78	2210.00
189.26	2217.00
189.73	3229.00
190.21	3361.00
190.69	3511.00
191.17	3534.00
191.64	3593.00
192.12	3568.00
192.60	3533.00
193.07	3513.00
193.55	3569.00
194.03	3566.00
194.51	3571.00
194.98	3553.00
195.46	3569.00
195.94	3523.00
196.42	3566.00
196.89	3641.00
197.37	3495.00
197.85	3486.00
198.32	3507.00
198.80	3526.00
199.28	3541.00
199.76	3621.00
200.23	3536.00
200.71	3553.00
201.19	3613.00
201.66	3592.00
202.14	3596.00
202.62	3503.00
203.09	3566.00
203.57	3544.00
204.05	3591.00
204.53	3627.00
205.00	3499.00
205.48	3530.00
205.96	3612.00
206.43	3556.00
206.91	3560.00
207.39	3638.00
207.86	3555.00
208.34	3550.00
208.82	3543.00
209.29	3565.00
209.77	3571.00
210.25	3567.00
210.72	3547.00
211.20	3547.00
211.68	3556.00
212.15	3509.00
212.63	3606.00
213.11	3579.00
213.58	3529.00
214.06	3622.00
214.53	3526.00
215.01	3563.00
215.49	3585.00
215.96	3559.00
216.44	3555.00
216.92	3554.00
217.39	3535.00
217.87	3540.00
218.35	3575.00
218.82	3512.00
219.30	3508.00
219.77	3524.00
220.25	3562.00
220.73	3667.00
221.20	3539.00
221.68	3563.00
222.15	3515.00
222.63	3547.00
223.11	3551.00
223.58	3554.00
224.06	3527.00
224.53	3470.00
225.01	3508.00
225.49	3506.00
225.96	3493.00
226.44	3566.00
226.91	3572.00
227.39	3552.00
227.87	3561.00
228.34	3579.00
228.82	3536.00
229.29	3521.00
229.77	3530.00
230.24	3521.00
230.72	3585.00
231.20	3604.00
231.67	3534.00
232.15	3508.00
232.62	3500.00
233.10	3528.00
233.57	3579.00
234.05	3682.00
234.53	3535.00
235.00	3521.00
235.48	3511.00
235.95	3502.00
236.43	3587.00
236.90	3600.00
237.38	3520.00
237.85	3540.00
238.33	3533.00
238.80	3519.00
239.28	3561.00
239.75	3485.00
240.23	3567.00
240.71	3586.00
241.18	3547.00
241.66	3536.00
242.13	3598.00
242.61	3588.00
243.08	3488.00
243.56	3527.00
244.03	3614.00
244.51	3625.00
244.98	3555.00
245.46	3564.00
245.93	4777.00
246.41	3530.00
246.88	3556.00
247.36	3539.00
247.83	3546.00
248.31	3563.00
248.78	3495.00
249.26	3592.00
249.73	3613.00
250.21	3545.00
250.68	3621.00
251.16	3557.00
251.63	3637.00
252.10	3606.00
252.58	3552.00
253.05	3624.00
253.53	3530.00
254.00	3558.00
254.48	3589.00
254.95	3612.00
255.43	3611.00
255.90	3572.00
256.38	3587.00
256.85	3634.00
257.33	3630.00
257.80	3663.00
258.27	3589.00
258.75	3560.00
259.22	3566.00
259.70	3551.00
260.17	3657.00
260.65	3574.00
261.12	3578.00
261.59	3646.00
262.07	3557.00
262.54	3585.00
263.02	3590.00
263.49	3474.00
263.97	3577.00
264.44	3637.00
264.91	3584.00
265.39	3582.00
265.86	3599.00
266.34	3605.00
266.81	3544.00
267.28	3543.00
267.76	3589.00
268.23	3573.00
268.71	3503.00
269.18	3566.00
269.65	3501.00
270.13	3624.00
270.60	3654.00
271.08	3538.00
271.55	3563.00
272.02	3565.00
272.50	3512.00
272.97	3471.00
273.44	3592.00
273.92	3715.00
274.39	3608.00
274.87	3567.00
275.34	3526.00
275.81	3539.00
276.29	3552.00
276.76	3532.00
277.23	3436.00
277.71	3513.00
278.18	3434.00
278.65	3647.00
279.13	3508.00
279.60	3554.00
280.07	3836.00
280.55	3741.00
281.02	3836.00
281.50	3641.00
281.97	3724.00
282.44	3592.00
282.91	3595.00
283.39	3673.00
283.86	3539.00
284.33	3535.00
284.81	3650.00
285.28	3609.00
285.75	3617.00
286.23	3598.00
286.70	3533.00
287.17	3580.00
287.65	3664.00
288.12	3554.00
288.59	3611.00
289.07	3515.00
289.54	3648.00
290.01	3558.00
290.48	3593.00
290.96	3555.00
291.43	3605.00
291.90	3671.00
292.38	3545.00
292.85	3635.00
293.32	3587.00
293.79	3617.00
294.27	3625.00
294.74	3562.00
295.21	3623.00
295.69	3632.00
296.16	3629.00
296.63	3675.00
297.10	3577.00
297.58	3612.00
298.05	3623.00
298.52	3557.00
298.99	3663.00
299.47	3550.00
299.94	3615.00
300.41	3545.00
300.88	3609.00
301.36	3628.00
301.83	3585.00
302.30	3547.00
302.77	3639.00
303.25	3648.00
303.72	3567.00
304.19	3581.00
304.66	3538.00
305.13	3579.00
305.61	3574.00
306.08	3596.00
306.55	3611.00
307.02	3554.00
307.49	3549.00
307.97	3595.00
308.44	3565.00
308.91	3585.00
309.38	3625.00
309.86	3611.00
310.33	3567.00
310.80	3616.00
311.27	3581.00
311.74	3651.00
312.21	3604.00
312.69	3671.00
313.16	3555.00
313.63	3603.00
314.10	3581.00
314.57	3559.00
315.05	3544.00
315.52	3628.00
315.99	3625.00
316.46	3599.00
316.93	3670.00
317.40	3597.00
317.88	3730.00
318.35	3585.00
318.82	3615.00
319.29	3567.00
319.76	3621.00
320.23	3656.00
320.70	3641.00
321.18	3578.00
321.65	3543.00
322.12	3579.00
322.59	3715.00
323.06	3603.00
323.53	3732.00
324.00	3557.00
324.48	3615.00
324.95	3605.00
325.42	3599.00
325.89	3581.00
326.36	3621.00
326.83	3653.00
327.30	3685.00
327.77	3686.00
328.24	3651.00
328.72	3596.00
329.19	3613.00
329.66	3659.00
330.13	3601.00
330.60	3698.00
331.07	3647.00
331.54	3709.00
332.01	3634.00
332.48	3683.00
332.95	3675.00
333.43	3693.00
333.90	3745.00
334.37	3636.00
334.84	3652.00
335.31	3811.00
335.78	3590.00
336.25	3614.00
336.72	3627.00
337.19	3669.00
337.66	3574.00
338.13	3625.00
338.60	3678.00
339.07	3644.00
339.54	3539.00
340.01	3571.00
340.49	3551.00
340.96	3580.00
341.43	3635.00
341.90	3540.00
342.37	3557.00
342.84	3657.00
343.31	3531.00
343.78	3554.00
344.25	3546.00
344.72	3549.00
345.19	3527.00
345.66	3599.00
346.13	3549.00
346.60	3526.00
347.07	3683.00
347.54	3527.00
348.01	3632.00
348.48	3559.00
348.95	3478.00
349.42	3581.00
349.89	3595.00
350.36	3555.00
350.83	3533.00
351.30	3579.00
351.77	3671.00
352.24	3581.00
352.71	3530.00
353.18	3595.00
353.65	3563.00
354.12	3571.00
354.59	3612.00
355.06	3582.00
355.53	3645.00
356.00	3569.00
356.47	3635.00
356.94	3551.00
357.41	3697.00
357.88	3595.00
358.35	3488.00
358.82	3556.00
359.28	3584.00
359.75	3558.00
360.22	3635.00
360.69	3622.00
361.16	3564.00
361.63	3598.00
362.10	3593.00
362.57	3592.00
363.04	3611.00
363.51	3692.00
363.98	3596.00
364.45	3584.00
364.92	3608.00
365.39	3544.00
365.86	3525.00
366.32	3600.00
366.79	3580.00
367.26	4735.00
367.73	3607.00
368.20	3539.00
368.67	3654.00
369.14	3534.00
369.61	3607.00
370.08	3601.00
370.55	3553.00
371.02	4307.00
371.48	3625.00
371.95	3591.00
372.42	3535.00
372.89	3551.00
373.36	3607.00
373.83	3543.00
374.30	3558.00
374.77	3618.00
375.23	3505.00
375.70	3666.00
376.17	3548.00
376.64	3542.00
377.11	3553.00
377.58	3615.00
378.05	3657.00
378.51	3615.00
378.98	3611.00
379.45	3591.00
379.92	3596.00
380.39	3706.00
380.86	3608.00
381.33	3658.00
381.79	3634.00
382.26	3559.00
382.73	3590.00
383.20	3609.00
383.67	3617.00
384.14	3622.00
384.60	3853.00
385.07	3584.00
385.54	3595.00
386.01	3581.00
386.48	3675.00
386.94	3593.00
387.41	3508.00
387.88	3647.00
388.35	3598.00
388.82	3683.00
389.28	3554.00
389.75	3631.00
390.22	3603.00
390.69	3631.00
391.16	3608.00
391.62	3585.00
392.09	3637.00
392.56	3667.00
393.03	3598.00
393.50	3695.00
393.96	3574.00
394.43	3692.00
394.90	3571.00
395.37	3669.00
395.83	3740.00
396.30	3561.00
396.77	3603.00
397.24	3638.00
397.70	3588.00
398.17	3631.00
398.64	3616.00
399.11	3605.00
399.57	3685.00
400.04	3551.00
400.51	3624.00
400.98	3637.00
401.44	3660.00
401.91	3637.00
402.38	3664.00
402.84	3627.00
403.31	3713.00
403.78	3646.00
404.25	3688.00
404.71	3721.00
405.18	3727.00
405.65	3596.00
406.12	3716.00
406.58	3711.00
407.05	3775.00
407.52	3708.00
407.98	4195.00
408.45	3695.00
408.92	3683.00
409.38	3757.00
409.85	3667.00
410.32	3780.00
410.78	3714.00
411.25	3790.00
411.72	3724.00
412.18	3716.00
412.65	3775.00
413.12	3727.00
413.59	3804.00
414.05	3803.00
414.52	3885.00
414.98	3802.00
415.45	3867.00
415.92	3807.00
416.38	3819.00
416.85	3888.00
417.32	3919.00
417.78	3863.00
418.25	3897.00
418.72	3905.00
419.18	3961.00
419.65	3891.00
420.12	3978.00
420.58	3981.00
421.05	3951.00
421.51	3953.00
421.98	4056.00
422.45	3923.00
422.91	4040.00
423.38	4062.00
423.85	4036.00
424.31	4058.00
424.78	4052.00
425.24	4050.00
425.71	4125.00
426.18	4088.00
426.64	4181.00
427.11	4150.00
427.57	4141.00
428.04	4096.00
428.51	4169.00
428.97	4114.00
429.44	4097.00
429.90	4070.00
430.37	4204.00
430.83	4068.00
431.30	4220.00
431.77	4305.00
432.23	4301.00
432.70	4277.00
433.16	4244.00
433.63	4300.00
434.09	4226.00
434.56	4414.00
435.03	4311.00
435.49	4387.00
435.96	4459.00
436.42	4411.00
436.89	4439.00
437.35	4424.00
437.82	4389.00
438.28	4340.00
438.75	4405.00
439.21	4595.00
439.68	4510.00
440.14	4493.00
440.61	4552.00
441.07	4473.00
441.54	4592.00
442.00	4719.00
442.47	4556.00
442.94	4661.00
443.40	4614.00
443.87	4602.00
444.33	4786.00
444.80	4745.00
445.26	4632.00
445.73	4652.00
446.19	4720.00
446.65	4800.00
447.12	4834.00
447.58	4831.00
448.05	4825.00
448.51	4893.00
448.98	4878.00
449.44	4987.00
449.91	4943.00
450.37	5032.00
450.84	4996.00
451.30	4995.00
451.77	5099.00
452.23	4875.00
452.70	5039.00
453.16	4985.00
453.62	5037.00
454.09	5069.00
454.55	5094.00
455.02	5087.00
455.48	5110.00
455.95	5212.00
456.41	5141.00
456.88	5235.00
457.34	5205.00
457.80	5133.00
458.27	5102.00
458.73	5212.00
459.20	5207.00
459.66	5193.00
460.13	5166.00
460.59	5149.00
461.05	5255.00
461.52	5249.00
461.98	5197.00
462.45	5165.00
462.91	5251.00
463.37	5187.00
463.84	5196.00
464.30	5195.00
464.76	5167.00
465.23	5170.00
465.69	5258.00
466.16	5246.00
466.62	5226.00
467.08	5201.00
467.55	5215.00
468.01	5295.00
468.48	5245.00
468.94	5283.00
469.40	5208.00
469.87	5177.00
470.33	5186.00
470.79	5215.00
471.26	5263.00
471.72	5358.00
472.18	5251.00
472.65	5379.00
473.11	5388.00
473.57	5291.00
474.04	5329.00
474.50	5351.00
474.96	5312.00
475.43	5391.00
475.89	5362.00
476.35	5406.00
476.82	5433.00
477.28	5502.00
477.74	5473.00
478.21	5484.00
478.67	5543.00
479.13	5482.00
479.59	5586.00
480.06	5561.00
480.52	5544.00
480.98	5450.00
481.45	5589.00
481.91	5585.00
482.37	5522.00
482.84	5515.00
483.30	5476.00
483.76	5534.00
484.22	5618.00
484.69	5461.00
485.15	5364.00
485.61	5162.00
486.07	5175.00
486.54	5270.00
487.00	5416.00
487.46	5460.00
487.92	5469.00
488.39	5542.00
488.85	5548.00
489.31	5720.00
489.77	5736.00
490.24	5663.00
490.70	5708.00
491.16	5559.00
491.62	5611.00
492.09	5576.00
492.55	5806.00
493.01	5817.00
493.47	5878.00
493.94	5827.00
494.40	5905.00
494.86	5989.00
495.32	5936.00
495.78	5989.00
496.25	5993.00
496.71	6094.00
497.17	6251.00
497.63	6178.00
498.09	6085.00
498.56	6187.00
499.02	6306.00
499.48	6400.00
499.94	6275.00
500.40	6235.00
500.87	6371.00
501.33	6319.00
501.79	6474.00
502.25	6572.00
502.71	6961.00
503.17	6678.00
503.64	6682.00
504.10	6874.00
504.56	6985.00
505.02	7175.00
505.48	7219.00
505.94	7387.00
506.40	7502.00
506.87	7379.00
507.33	7462.00
507.79	7645.00
508.25	7682.00
508.71	7986.00
509.17	8081.00
509.63	8143.00
510.10	8252.00
510.56	8483.00
511.02	8685.00
511.48	8813.00
511.94	8920.00
512.40	8842.00
512.86	9016.00
513.32	9287.00
513.78	9261.00
514.25	9541.00
514.71	10347.00
515.17	9997.00
515.63	10295.00
516.09	10042.00
516.55	9732.00
517.01	9905.00
517.47	10519.00
517.93	10611.00
518.39	10975.00
518.85	11343.00
519.32	11825.00
519.78	12176.00
520.24	12395.00
520.70	12844.00
521.16	13080.00
521.62	13465.00
522.08	13493.00
522.54	13749.00
523.00	14098.00
523.46	14616.00
523.92	15078.00
524.38	15548.00
524.84	15592.00
525.30	15724.00
525.76	15701.00
526.22	15165.00
526.68	15095.00
527.14	15685.00
527.60	16562.00
528.06	17202.00
528.52	17739.00
528.98	17986.00
529.44	17930.00
529.90	18089.00
530.36	18634.00
530.82	18960.00
531.28	18993.00
531.74	18962.00
532.20	18645.00
532.66	18555.00
533.12	19025.00
533.58	19458.00
534.04	19604.00
534.50	19788.00
534.96	20289.00
535.42	20747.00
535.88	20749.00
536.34	20286.00
536.80	20211.00
537.26	20771.00
537.72	21103.00
538.18	21053.00
538.64	21213.00
539.10	20968.00
539.56	21016.00
540.02	20554.00
540.48	20651.00
540.94	21043.00
541.40	21610.00
541.86	21716.00
542.32	21776.00
542.78	21778.00
543.24	22093.00
543.69	22350.00
544.15	22617.00
544.61	22469.00
545.07	22589.00
545.53	22638.00
545.99	22924.00
546.45	22976.00
546.91	22933.00
547.37	22849.00
547.83	22799.00
548.29	23256.00
548.74	23488.00
549.20	23525.00
549.66	23802.00
550.12	23832.00
550.58	23628.00
551.04	23829.00
551.50	24035.00
551.96	24300.00
552.42	23923.00
552.87	23931.00
553.33	24355.00
553.79	24261.00
554.25	24476.00
554.71	24755.00
555.17	24647.00
555.63	24427.00
556.08	24201.00
556.54	24054.00
557.00	23827.00
557.46	23948.00
557.92	24105.00
558.38	23369.00
558.83	22956.00
559.29	23254.00
559.75	23323.00
560.21	23545.00
560.67	24024.00
561.13	23654.00
561.58	23317.00
562.04	23305.00
562.50	23341.00
562.96	23553.00
563.42	23366.00
563.87	23221.00
564.33	23277.00
564.79	23017.00
565.25	22476.00
565.71	22379.00
566.16	22233.00
566.62	22471.00
567.08	22557.00
567.54	22361.00
568.00	22014.00
568.45	21439.00
568.91	21530.00
569.37	21631.00
569.83	21146.00
570.28	20744.00
570.74	20353.00
571.20	20589.00
571.66	20785.00
572.11	20946.00
572.57	20823.00
573.03	20570.00
573.49	20385.00
573.94	20328.00
574.40	20093.00
574.86	19767.00
575.32	19377.00
575.77	19493.00
576.23	19283.00
576.69	19345.00
577.15	19238.00
577.60	19016.00
578.06	18625.00
578.52	18669.00
578.97	18660.00
579.43	18671.00
579.89	18731.00
580.34	18489.00
580.80	18525.00
581.26	18537.00
581.72	18482.00
582.17	18538.00
582.63	18339.00
583.09	18447.00
583.54	18324.00
584.00	18254.00
584.46	18125.00
584.91	17887.00
585.37	17613.00
585.83	17456.00
586.28	17520.00
586.74	17591.00
587.20	17516.00
587.65	17402.00
588.11	17020.00
588.57	16307.00
589.02	15721.00
589.48	15662.00
589.94	16176.00
590.39	16697.00
590.85	16644.00
591.30	16496.00
591.76	16599.00
592.22	16572.00
592.67	16682.00
593.13	16560.00
593.59	16588.00
594.04	16459.00
594.50	16324.00
594.95	16366.00
595.41	16465.00
595.87	16438.00
596.32	16695.00
596.78	16599.00
597.23	16411.00
597.69	16284.00
598.15	16265.00
598.60	16175.00
599.06	16291.00
599.51	16294.00
599.97	16369.00
600.43	16121.00
600.88	16131.00
601.34	16020.00
601.79	15835.00
602.25	16082.00
602.70	16111.00
603.16	16246.00
603.61	16082.00
604.07	16098.00
604.53	16060.00
604.98	15983.00
605.44	15910.00
605.89	15900.00
606.35	15665.00
606.80	15663.00
607.26	15725.00
607.71	15381.00
608.17	15278.00
608.62	15220.00
609.08	15249.00
609.53	15026.00
609.99	14829.00
610.44	14727.00
610.90	14883.00
611.35	14790.00
611.81	14677.00
612.26	14399.00
612.72	14581.00
613.17	14481.00
613.63	14099.00
614.08	14094.00
614.54	14098.00
614.99	14181.00
615.45	13919.00
615.90	13609.00
616.36	13396.00
616.81	13377.00
617.27	13595.00
617.72	13707.00
618.18	13661.00
618.63	13718.00
619.09	13409.00
619.54	13602.00
619.99	13532.00
620.45	13553.00
620.90	13541.00
621.36	13331.00
621.81	13431.00
622.27	13343.00
622.72	13256.00
623.18	13002.00
623.63	12995.00
624.08	12951.00
624.54	12865.00
624.99	12931.00
625.45	12893.00
625.90	12861.00
626.35	13053.00
626.81	13026.00
627.26	12863.00
627.72	12673.00
628.17	12693.00
628.62	12903.00
629.08	12797.00
629.53	12814.00
629.99	12759.00
630.44	12731.00
630.89	12879.00
631.35	12777.00
631.80	12667.00
632.26	12911.00
632.71	12861.00
633.16	12817.00
633.62	12713.00
634.07	12738.00
634.52	12817.00
634.98	12881.00
635.43	12631.00
635.88	12491.00
636.34	12579.00
636.79	12532.00
637.24	12498.00
637.70	12524.00
638.15	12418.00
638.60	12397.00
639.06	12148.00
639.51	12002.00
639.96	11834.00
640.42	11723.00
640.87	11697.00
641.32	11580.00
641.78	11508.00
642.23	11458.00
642.68	11321.00
643.14	11171.00
643.59	11149.00
644.04	11009.00
644.49	10839.00
644.95	10692.00
645.40	10629.00
645.85	10470.00
646.31	10403.00
646.76	10277.00
647.21	10202.00
647.66	10052.00
648.12	9884.00
648.57	9873.00
649.02	9832.00
649.47	9573.00
649.93	9796.00
650.38	9772.00
650.83	9644.00
651.28	9599.00
651.74	9495.00
652.19	9440.00
652.64	9531.00
653.09	9418.00
653.55	9288.00
654.00	9409.00
654.45	9180.00
654.90	9023.00
655.35	8888.00
655.81	8474.00
656.26	7908.00
656.71	8235.00
657.16	8511.00
657.62	8689.00
658.07	8659.00
658.52	8656.00
658.97	8534.00
659.42	8612.00
659.88	8319.00
660.33	8478.00
660.78	8283.00
661.23	8204.00
661.68	8141.00
662.13	8130.00
662.59	7943.00
663.04	7853.00
663.49	7692.00
663.94	7699.00
664.39	7538.00
664.84	7563.00
665.30	7475.00
665.75	7372.00
666.20	7267.00
666.65	7165.00
667.10	7249.00
667.55	7225.00
668.00	6987.00
668.46	7083.00
668.91	7006.00
669.36	7042.00
669.81	6841.00
670.26	6807.00
670.71	6837.00
671.16	6824.00
671.61	6786.00
672.06	6803.00
672.52	6644.00
672.97	6693.00
673.42	6704.00
673.87	6821.00
674.32	6558.00
674.77	6694.00
675.22	6533.00
675.67	6581.00
676.12	6605.00
676.57	6561.00
677.02	6547.00
677.47	6542.00
677.93	6677.00
678.38	6496.00
678.83	6547.00
679.28	6697.00
679.73	6619.00
680.18	6585.00
680.63	6691.00
681.08	6593.00
681.53	6610.00
681.98	6724.00
682.43	6758.00
682.88	6871.00
683.33	6973.00
683.78	6928.00
684.23	7121.00
684.68	7253.00
685.13	7346.00
685.58	7383.00
686.03	7433.00
686.48	7219.00
686.93	6903.00
687.38	7028.00
687.83	7587.00
688.28	8021.00
688.73	8353.00
689.18	8503.00
689.63	8742.00
690.08	9202.00
690.53	9595.00
690.98	9985.00
691.43	10464.00
691.88	11039.00
692.33	11577.00
692.78	12107.00
693.23	12578.00
693.68	13141.00
694.13	13583.00
694.58	14189.00
695.03	15268.00
695.48	15665.00
695.93	16450.00
696.38	17424.00
696.83	18357.00
697.28	18909.00
697.72	19352.00
698.17	20216.00
698.62	20612.00
699.07	21452.00
699.52	22273.00
699.97	22748.00
700.42	23423.00
700.87	24321.00
701.32	24851.00
701.77	25443.00
702.22	26115.00
702.67	26797.00
703.11	27889.00
703.56	28877.00
704.01	29605.00
704.46	30583.00
704.91	31271.00
705.36	31596.00
705.81	32406.00
706.26	32834.00
706.70	33595.00
707.15	34283.00
707.60	35021.00
708.05	35774.00
708.50	36099.00
708.95	36816.00
709.40	37454.00
709.84	38055.00
710.29	38660.00
710.74	38817.00
711.19	39425.00
711.64	39891.00
712.09	40693.00
712.53	41025.00
712.98	41518.00
713.43	41972.00
713.88	42553.00
714.33	42700.00
714.78	42441.00
715.22	42843.00
715.67	43245.00
716.12	42603.00
716.57	41083.00
717.02	39649.00
717.46	38824.00
717.91	38511.00
718.36	37539.00
718.81	37442.00
719.26	37476.00
719.70	38166.00
720.15	38751.00
720.60	40458.00
721.05	43301.00
721.49	45473.00
721.94	46402.00
722.39	46267.00
722.84	45291.00
723.28	43365.00
723.73	42955.00
724.18	43132.00
724.63	43994.00
725.07	43768.00
725.52	44668.00
725.97	45363.00
726.42	45763.00
726.86	46369.00
727.31	45829.00
727.76	46004.00
728.21	46933.00
728.65	47005.00
729.10	46379.00
729.55	47562.00
729.99	48614.00
730.44	48884.00
730.89	49345.00
731.33	50346.00
731.78	51404.00
732.23	52557.00
732.68	53481.00
733.12	54139.00
733.57	55309.00
734.02	56007.00
734.46	56379.00
734.91	56521.00
735.36	56860.00
735.80	57311.00
736.25	57390.00
736.70	57643.00
737.14	58251.00
737.59	58584.00
738.04	58573.00
738.48	57924.00
738.93	58024.00
739.37	58738.00
739.82	59619.00
740.27	59743.00
740.71	59866.00
741.16	59632.00
741.61	59926.00
742.05	59820.00
742.50	60375.00
742.94	61132.00
743.39	61264.00
743.84	61152.00
744.28	60998.00
744.73	61201.00
745.18	61632.00
745.62	62094.00
746.07	61978.00
746.51	61861.00
746.96	62169.00
747.40	61408.00
747.85	61468.00
748.30	61467.00
748.74	61364.00
749.19	61183.00
749.63	61279.00
750.08	61509.00
750.52	61660.00
750.97	61576.00
751.42	61265.00
751.86	61589.00
752.31	61108.00
752.75	61041.00
753.20	60977.00
753.64	60912.00
754.09	60999.00
754.53	61130.00
754.98	61085.00
755.42	61082.00
755.87	60992.00
756.31	60750.00
756.76	60207.00
757.20	59889.00
757.65	59306.00
758.09	58508.00
758.54	56415.00
758.98	50630.00
759.43	39907.00
759.87	28129.00
760.32	20880.00
760.76	20593.00
761.21	25440.00
761.65	31580.00
762.10	33357.00
762.54	31760.00
762.99	30027.00
763.43	30626.00
763.88	32720.00
764.32	35767.00
764.77	38988.00
765.21	41767.00
765.66	44424.00
766.10	46705.00
766.54	49313.00
766.99	51465.00
767.43	53387.00
767.88	54659.00
768.32	55524.00
768.77	56374.00
769.21	57440.00
769.66	57955.00
770.10	58661.00
770.54	59144.00
770.99	59234.00
771.43	59116.00
771.88	59079.00
772.32	59014.00
772.76	59032.00
773.21	58950.00
773.65	58601.00
774.10	58424.00
774.54	58290.00
774.98	58344.00
775.43	58902.00
775.87	59477.00
776.31	59798.00
776.76	59465.00
777.20	59317.00
777.65	58809.00
778.09	58482.00
778.53	58023.00
778.98	58068.00
779.42	57833.00
779.86	57844.00
780.31	57597.00
780.75	58101.00
781.19	58461.00
781.64	58797.00
782.08	58797.00
782.52	58478.00
782.97	57847.00
783.41	57544.00
783.85	56896.00
784.30	56607.00
784.74	56416.00
785.18	56324.00
785.63	56508.00
786.07	56281.00
786.51	56770.00
786.95	56843.00
787.40	56323.00
787.84	56173.00
788.28	55648.00
788.73	55400.00
789.17	54745.00
789.61	54355.00
790.05	53986.00
790.50	53732.00
790.94	53403.00
791.38	53429.00
791.82	53693.00
792.27	53764.00
792.71	53934.00
793.15	54216.00
793.59	53928.00
794.04	53595.00
794.48	53347.00
794.92	52621.00
795.36	52260.00
795.81	51712.00
796.25	51672.00
796.69	51759.00
797.13	52920.00
797.57	52874.00
798.02	53380.00
798.46	53508.00
798.90	53185.00
799.34	52739.00
799.79	52039.00
800.23	51354.00
800.67	51191.00
801.11	50838.00
801.55	50676.00
801.99	50429.00
802.44	50677.00
802.88	51063.00
803.32	51336.00
803.76	51557.00
804.20	51565.00
804.64	51422.00
805.09	51508.00
805.53	51430.00
805.97	51213.00
806.41	50314.00
806.85	49707.00
807.29	49392.00
807.74	49377.00
808.18	49091.00
808.62	49028.00
809.06	49226.00
809.50	49344.00
809.94	49416.00
810.38	49743.00
810.82	49607.00
811.27	49069.00
811.71	48181.00
812.15	47317.00
812.59	45823.00
813.03	44825.00
813.47	43187.00
813.91	42466.00
814.35	41727.00
814.79	41224.00
815.23	40938.00
815.67	40309.00
816.12	40481.00
816.56	40334.00
817.00	40686.00
817.44	41211.00
817.88	41054.00
818.32	40234.00
818.76	40581.00
819.20	40513.00
819.64	41034.00
820.08	41277.00
820.52	42503.00
820.96	43427.00
821.40	42666.00
821.84	41112.00
822.28	38932.00
822.72	38613.00
823.16	38545.00
823.60	40639.00
824.04	43329.00
824.48	43937.00
824.92	44064.00
825.36	43656.00
825.80	43058.00
826.24	42837.00
826.68	42285.00
827.12	42269.00
827.56	41380.00
828.00	41489.00
828.44	41897.00
828.88	42266.00
829.32	42984.00
829.76	42823.00
830.20	43720.00
830.64	43005.00
831.08	42757.00
831.52	41860.00
831.96	41537.00
832.40	41080.00
832.84	41691.00
833.28	41759.00
833.72	42610.00
834.16	43689.00
834.60	44764.00
835.04	45235.00
835.48	45499.00
835.91	45408.00
836.35	45311.00
836.79	44805.00
837.23	44721.00
837.67	44097.00
838.11	43739.00
838.55	43875.00
838.99	43956.00
839.43	44321.00
839.87	44869.00
840.30	45444.00
840.74	46065.00
841.18	46479.00
841.62	46568.00
842.06	46407.00
842.50	46496.00
842.94	46016.00
843.38	45201.00
843.81	44393.00
844.25	44001.00
844.69	43698.00
845.13	43610.00
845.57	43825.00
846.01	44056.00
846.45	44561.00
846.88	44880.00
847.32	45507.00
847.76	46054.00
848.20	46160.00
848.64	45417.00
849.08	44831.00
849.51	44502.00
849.95	43443.00
850.39	43724.00
850.83	44201.00
851.27	43976.00
851.70	43049.00
852.14	42872.00
852.58	42357.00
853.02	40727.00
853.46	39619.00
853.89	39734.00
854.33	39501.00
854.77	41316.00
855.21	43932.00
855.65	45291.00
856.08	45794.00
856.52	45709.00
856.96	45587.00
857.40	44712.00
857.83	43761.00
858.27	43171.00
858.71	42168.00
859.15	42317.00
859.58	42710.00
860.02	42816.00
860.46	43615.00
860.89	44579.00
861.33	44829.00
861.77	45228.00
862.21	45724.00
862.64	45728.00
863.08	45500.00
863.52	45133.00
863.95	44292.00
864.39	43432.00
864.83	41730.00
865.27	39889.00
865.70	39812.00
866.14	38724.00
866.58	38905.00
867.01	40790.00
867.45	42569.00
867.89	43283.00
868.32	44066.00
868.76	44424.00
869.20	45010.00
869.63	45077.00
870.07	44125.00
870.51	43105.00
870.94	42268.00
871.38	41351.00
871.82	40735.00
872.25	40397.00
872.69	40363.00
873.13	40813.00
873.56	41140.00
874.00	41546.00
874.43	42419.00
874.87	43091.00
875.31	43260.00
875.74	43462.00
876.18	43728.00
876.61	43726.00
877.05	43216.00
877.49	42486.00
877.92	41992.00
878.36	41298.00
878.79	40622.00
879.23	39877.00
879.67	39181.00
880.10	39407.00
880.54	39235.00
880.97	39645.00
881.41	40948.00
881.84	42160.00
882.28	42750.00
882.72	43280.00
883.15	44041.00
883.59	44121.00
884.02	43773.00
884.46	43428.00
884.89	42725.00
885.33	41717.00
885.76	40623.00
886.20	39661.00
886.63	39099.00
887.07	38701.00
887.50	38894.00
887.94	38991.00
888.37	39555.00
888.81	40369.00
889.24	40557.00
889.68	41012.00
890.11	41478.00
890.55	42095.00
890.98	42215.00
891.42	42237.00
891.85	42022.00
892.29	41652.00
892.72	40519.00
893.16	39131.00
893.59	38340.00
894.03	37029.00
894.46	35843.00
894.90	34526.00
895.33	33230.00
895.77	33231.00
896.20	32839.00
896.63	33039.00
897.07	33157.00
897.50	32777.00
897.94	33172.00
898.37	34418.00
898.81	32256.00
899.24	32328.00
899.68	33900.00
900.11	33175.00
900.54	32281.00
900.98	31801.00
901.41	31533.00
901.85	31874.00
902.28	32228.00
902.71	32413.00
903.15	33432.00
903.58	34633.00
904.02	34506.00
904.45	34663.00
904.88	34403.00
905.32	34188.00
905.75	34006.00
906.18	32960.00
906.62	33121.00
907.05	32324.00
907.48	32180.00
907.92	31963.00
908.35	31955.00
908.79	31390.00
909.22	31145.00
909.65	30579.00
910.09	30737.00
910.52	29903.00
910.95	30366.00
911.38	30500.00
911.82	29187.00
912.25	30174.00
912.68	30738.00
913.12	30715.00
913.55	30675.00
913.98	31808.00
914.42	33020.00
914.85	33413.00
915.28	31523.00
915.72	31133.00
916.15	30888.00
916.58	31189.00
917.01	30005.00
917.45	29223.00
917.88	30085.00
918.31	30659.00
918.74	31731.00
919.18	32076.00
919.61	32120.00
920.04	32807.00
920.47	33195.00
920.91	33568.00
921.34	33266.00
921.77	33478.00
922.20	34214.00
922.64	33849.00
923.07	33588.00
923.50	33216.00
923.93	32650.00
924.37	32048.00
924.80	31522.00
925.23	31400.00
925.66	30224.00
926.09	28779.00
926.53	28117.00
926.96	27239.00
927.39	26008.00
927.82	24569.00
928.25	23589.00
928.69	22980.00
929.12	22783.00
929.55	21579.00
929.98	20595.00
930.41	19537.00
930.84	18442.00
931.28	17069.00
931.71	15514.00
932.14	14093.00
932.57	13580.00
933.00	12881.00
933.43	12297.00
933.86	11464.00
934.30	11092.00
934.73	12480.00
935.16	11890.00
935.59	11045.00
936.02	11834.00
936.45	11405.00
936.88	11532.00
937.31	12791.00
937.75	13257.00
938.18	14017.00
938.61	14769.00
939.04	15442.00
939.47	15271.00
939.90	14137.00
940.33	13550.00
940.76	12647.00
941.19	12094.00
941.62	11760.00
942.05	11815.00
942.48	10378.00
942.91	10429.00
943.35	11236.00
943.78	10275.00
944.21	10291.00
944.64	11147.00
945.07	11396.00
945.50	11168.00
945.93	11517.00
946.36	11841.00
946.79	12332.00
947.22	13033.00
947.65	12611.00
948.08	12186.00
948.51	13255.00
948.94	13489.00
949.37	12736.00
949.80	12151.00
950.23	12363.00
950.66	13112.00
951.09	12986.00
951.52	12440.00
951.95	12533.00
952.38	13051.00
952.81	13794.00
953.24	14671.00
953.67	14759.00
954.10	14609.00
954.53	15271.00
954.96	15020.00
955.39	15633.00
955.82	16560.00
956.25	15766.00
956.68	16240.00
957.11	16564.00
957.53	15905.00
957.96	15869.00
958.39	15624.00
958.82	14895.00
959.25	15454.00
959.68	16227.00
960.11	16413.00
960.54	16663.00
960.97	17649.00
961.40	18392.00
961.83	17982.00
962.26	18473.00
962.68	20086.00
963.11	20168.00
963.54	20465.00
963.97	20716.00
964.40	20577.00
964.83	21039.00
965.26	21262.00
965.69	21025.00
966.11	20674.00
966.54	21050.00
966.97	21924.00
967.40	22162.00
967.83	22000.00
968.26	22205.00
968.69	22413.00
969.11	22594.00
969.54	22137.00
969.97	22595.00
970.40	23018.00
970.83	22877.00
971.26	22972.00
971.68	23153.00
972.11	23207.00
972.54	23779.00
972.97	23542.00
973.40	23313.00
973.82	23226.00
974.25	23162.00
974.68	22631.00
975.11	22497.00
975.54	21981.00
975.96	21571.00
976.39	21640.00
976.82	21921.00
977.25	21539.00
977.67	21409.00
978.10	21654.00
978.53	21937.00
978.96	22531.00
979.38	23012.00
979.81	23281.00
980.24	24129.00
980.67	24439.00
981.09	24761.00
981.52	25065.00
981.95	25089.00
982.38	25309.00
982.80	25685.00
983.23	25708.00
983.66	25768.00
984.08	25502.00
984.51	25315.00
984.94	25024.00
985.37	24662.00
985.79	24192.00
986.22	23705.00
986.65	23517.00
987.07	23167.00
987.50	23190.00
987.93	23202.00
988.35	23341.00
988.78	23450.00
989.21	23493.00
989.63	24099.00
990.06	24328.00
990.49	24742.00
990.91	25119.00
991.34	25322.00
991.77	25420.00
992.19	25333.00
992.62	25137.00
993.05	25168.00
993.47	24815.00
993.90	24575.00
994.32	24167.00
994.75	23671.00
995.18	23564.00
995.60	23052.00
996.03	22786.00
996.45	22540.00
996.88	22288.00
997.31	22181.00
997.73	22350.00
998.16	22237.00
998.58	22525.00
999.01	22562.00
999.44	22916.00
999.86	23108.00
1000.29	23256.00
1000.71	23397.00
1001.14	23448.00
1001.56	23575.00
1001.99	23142.00
1002.41	22823.00
1002.84	22427.00
1003.27	21892.00
1003.69	21591.00
1004.12	21060.00
1004.54	20782.00
1004.97	20440.00
1005.39	20142.00
1005.82	20108.00
1006.24	19883.00
1006.67	19748.00
1007.09	19811.00
1007.52	19718.00
1007.94	19864.00
1008.37	19947.00
1008.79	20102.00
1009.22	20014.00
1009.64	20116.00
1010.07	20231.00
1010.49	20328.00
1010.92	20208.00
1011.34	20320.00
1011.77	20160.00
1012.19	20283.00
1012.62	19987.00
1013.04	19672.00
1013.46	19355.00
1013.89	18811.00
1014.31	18703.00
1014.74	18190.00
1015.16	17936.00
1015.59	17845.00
1016.01	17955.00
1016.44	17872.00
1016.86	18794.00
1017.28	18013.00
1017.71	18224.00
1018.13	18563.00
1018.56	18622.00
1018.98	18737.00
1019.40	18758.00
1019.83	18888.00
1020.25	19059.00
1020.68	19146.00
1021.10	19383.00
1021.52	19395.00
1021.95	19691.00
1022.37	19474.00
1022.79	19385.00
1023.22	19150.00
1023.64	18985.00
1024.07	18836.00
1024.49	18533.00
1024.91	18259.00
1025.34	18166.00
1025.76	18120.00
1026.18	17695.00
1026.61	17495.00
1027.03	17609.00
1027.45	17581.00
1027.88	17683.00
1028.30	17787.00
1028.72	17843.00
1029.15	17975.00
1029.57	18104.00
1029.99	18077.00
1030.41	18010.00
1030.84	18003.00
1031.26	17942.00
1031.68	17719.00
1032.11	17624.00
1032.53	17456.00
1032.95	17266.00
1033.37	16969.00
1033.80	16717.00
1034.22	16334.00
1034.64	16187.00
1035.06	15765.00
1035.49	15759.00
1035.91	15502.00
1036.33	15255.00
1036.75	15098.00
1037.18	15105.00
1037.60	14958.00
1038.02	14963.00
1038.44	15018.00
1038.87	14954.00
1039.29	15121.00
1039.71	15061.00
1040.13	15022.00
1040.55	15105.00
1040.98	15155.00
1041.40	15044.00
1041.82	14933.00
1042.24	14761.00
1042.66	14537.00
1043.09	14284.00
1043.51	14102.00
1043.93	13837.00
1044.35	13634.00
1044.77	13555.00
1045.20	13313.00
1045.62	13060.00
1046.04	13006.00
1046.46	12796.00
1046.88	12659.00
1047.30	12538.00
1047.72	12411.00
1048.15	12376.00
1048.57	12278.00
1048.99	12223.00
1049.41	12249.00
1049.83	12225.00
1050.25	12132.00
1050.67	12149.00
1051.09	12137.00
1051.52	12050.00
1051.94	11797.00
1052.36	11887.00
1052.78	11848.00
1053.20	11831.00
1053.62	11657.00
1054.04	11616.00
1054.46	11406.00
1054.88	11434.00
1055.30	11121.00
1055.72	11168.00
1056.14	10912.00
1056.57	10809.00
1056.99	10486.00
1057.41	10417.00
1057.83	10325.00
1058.25	10247.00
1058.67	10107.00
1059.09	10020.00
1059.51	9893.00
1059.93	9803.00
1060.35	9631.00
1060.77	9640.00
1061.19	9733.00
1061.61	9461.00
1062.03	9450.00
1062.45	9351.00
1062.87	9528.00
1063.29	9459.00
1063.71	9395.00
1064.13	9268.00
1064.55	9281.00
1064.97	9230.00
1065.39	9164.00
1065.81	8973.00
1066.23	8997.00
1066.65	8916.00
1067.07	8791.00
1067.49	8551.00
1067.91	8611.00
1068.33	8479.00
1068.75	8415.00
1069.17	8431.00
1069.59	8351.00
1070.00	8133.00
1070.42	8226.00
1070.84	7974.00
1071.26	7860.00
1071.68	7972.00
1072.10	7915.00
1072.52	7914.00
1072.94	7856.00
1073.36	7821.00
1073.78	7714.00
1074.20	7823.00
1074.62	7636.00
1075.03	7709.00
1075.45	7661.00
1075.87	7681.00
1076.29	7616.00
1076.71	7644.00
1077.13	7580.00
1077.55	7383.00
1077.97	7382.00
1078.38	7306.00
1078.80	7298.00
1079.22	7154.00
1079.64	7056.00
1080.06	6984.00
1080.48	6918.00
1080.89	6937.00
1081.31	6844.00
1081.73	6840.00
1082.15	6701.00
1082.57	6689.00
1082.99	6668.00
1083.40	6577.00
1083.82	6585.00
1084.24	6491.00
1084.66	6477.00
1085.08	6450.00
1085.49	6400.00
1085.91	6437.00
1086.33	7668.00
1086.75	6379.00
1087.17	6351.00
1087.58	6340.00
1088.00	6332.00
1088.42	6320.00
1088.84	6208.00
1089.25	6076.00
1089.67	6104.00
1090.09	5980.00
1090.51	5905.00
1090.92	5979.00
1091.34	5742.00
1091.76	5759.00
1092.18	5757.00
1092.59	5658.00
1093.01	5677.00
1093.43	5604.00
1093.84	5503.00
1094.26	5476.00
1094.68	5447.00
1095.10	5347.00
1095.51	5362.00
1095.93	5321.00
1096.35	5333.00
1096.76	5355.00
1097.18	5308.00
1097.60	5297.00
1098.01	5205.00
1098.43	5116.00
1098.85	5161.00
1099.26	5075.00
1099.68	5050.00
1100.10	4925.00
1100.51	4887.00
1100.93	4818.00
1101.35	4831.00
1101.76	4857.00
1102.18	5221.00
1102.60	4740.00
1103.01	4591.00
1103.43	4646.00
1103.84	4635.00
1104.26	4575.00
1104.68	4551.00
1105.09	4490.00
1105.51	4545.00
1105.92	4552.00
1106.34	4424.00
1106.76	4465.00
1107.17	4388.00
1107.59	4363.00
1108.00	4217.00
1108.42	4252.00
1108.83	4150.00
1109.25	4137.00
1109.67	4133.00
1110.08	4114.00
1110.50	4015.00
1110.91	4041.00
1111.33	3997.00
1111.74	3946.00
1112.16	3931.00
1112.57	3952.00
1112.99	3786.00
1113.41	3792.00
1113.82	3703.00
1114.24	3644.00
1114.65	3565.00
1115.07	3458.00
1115.48	3354.00
1115.90	2179.00
1116.31	2214.00
1116.73	2208.00
1117.14	2211.00
>>>>>End Processed Spectral Data<<<<<
