SpectraSuite Data File
++++++++++++++++++++++++++++++++++++
Date: Tue May 29 13:10:18 EEST 2018
User: CanSEE
Dark Spectrum Present: No
Reference Spectrum Present: No
Number of Sampled Component Spectra: 1
Spectrometers: MAYP11278
Integration Time (usec): 230000 (MAYP11278)
Spectra Averaged: 1 (MAYP11278)
Boxcar Smoothing: 0 (MAYP11278)
Correct for Electrical Dark: No (MAYP11278)
Strobe/Lamp Enabled: No (MAYP11278)
Correct for Detector Non-linearity: No (MAYP11278)
Correct for Stray Light: No (MAYP11278)
Number of Pixels in Processed Spectrum: 2068
>>>>>Begin Processed Spectral Data<<<<<
187.82	2339.00
188.30	2233.00
188.78	2212.00
189.26	2209.00
189.73	3228.00
190.21	3365.00
190.69	3517.00
191.17	3548.00
191.64	3599.00
192.12	3532.00
192.60	3515.00
193.07	3538.00
193.55	3543.00
194.03	3545.00
194.51	3592.00
194.98	3541.00
195.46	3613.00
195.94	3530.00
196.42	3556.00
196.89	3658.00
197.37	3528.00
197.85	3517.00
198.32	3561.00
198.80	3532.00
199.28	3586.00
199.76	3601.00
200.23	3548.00
200.71	3555.00
201.19	3610.00
201.66	3594.00
202.14	3590.00
202.62	3513.00
203.09	3566.00
203.57	3493.00
204.05	3589.00
204.53	3580.00
205.00	3513.00
205.48	3519.00
205.96	3577.00
206.43	3513.00
206.91	3544.00
207.39	3691.00
207.86	3547.00
208.34	3591.00
208.82	3550.00
209.29	3590.00
209.77	3591.00
210.25	3561.00
210.72	3544.00
211.20	3585.00
211.68	3533.00
212.15	3517.00
212.63	3611.00
213.11	3565.00
213.58	3530.00
214.06	3659.00
214.53	3567.00
215.01	3602.00
215.49	3586.00
215.96	3557.00
216.44	3593.00
216.92	3572.00
217.39	3512.00
217.87	3551.00
218.35	3594.00
218.82	3500.00
219.30	3536.00
219.77	3542.00
220.25	3513.00
220.73	3617.00
221.20	3503.00
221.68	3529.00
222.15	3551.00
222.63	3561.00
223.11	3537.00
223.58	3620.00
224.06	3525.00
224.53	3536.00
225.01	3509.00
225.49	3503.00
225.96	3527.00
226.44	3543.00
226.91	3595.00
227.39	3577.00
227.87	3571.00
228.34	3523.00
228.82	3588.00
229.29	3533.00
229.77	3529.00
230.24	3521.00
230.72	3605.00
231.20	3584.00
231.67	3562.00
232.15	3537.00
232.62	3469.00
233.10	3531.00
233.57	3547.00
234.05	3669.00
234.53	3550.00
235.00	3500.00
235.48	3537.00
235.95	3550.00
236.43	3536.00
236.90	3603.00
237.38	3515.00
237.85	3577.00
238.33	3552.00
238.80	3524.00
239.28	3543.00
239.75	3488.00
240.23	3579.00
240.71	3624.00
241.18	3559.00
241.66	3525.00
242.13	3537.00
242.61	3584.00
243.08	3500.00
243.56	3518.00
244.03	3572.00
244.51	3657.00
244.98	3539.00
245.46	3628.00
245.93	4759.00
246.41	3484.00
246.88	3558.00
247.36	3530.00
247.83	3563.00
248.31	3579.00
248.78	3486.00
249.26	3573.00
249.73	3614.00
250.21	3596.00
250.68	3609.00
251.16	3563.00
251.63	3618.00
252.10	3618.00
252.58	3575.00
253.05	3591.00
253.53	3604.00
254.00	3512.00
254.48	3549.00
254.95	3592.00
255.43	3617.00
255.90	3555.00
256.38	3596.00
256.85	3618.00
257.33	3621.00
257.80	3703.00
258.27	3599.00
258.75	3571.00
259.22	3575.00
259.70	3542.00
260.17	3625.00
260.65	3584.00
261.12	3539.00
261.59	3623.00
262.07	3546.00
262.54	3621.00
263.02	3561.00
263.49	3513.00
263.97	3644.00
264.44	3615.00
264.91	3583.00
265.39	3555.00
265.86	3557.00
266.34	3603.00
266.81	3589.00
267.28	3586.00
267.76	3601.00
268.23	3589.00
268.71	3481.00
269.18	3524.00
269.65	3538.00
270.13	3562.00
270.60	3599.00
271.08	3587.00
271.55	3563.00
272.02	3534.00
272.50	3530.00
272.97	3506.00
273.44	3557.00
273.92	3689.00
274.39	3572.00
274.87	3591.00
275.34	3534.00
275.81	3518.00
276.29	3561.00
276.76	3595.00
277.23	3433.00
277.71	3498.00
278.18	3461.00
278.65	3603.00
279.13	3454.00
279.60	3540.00
280.07	3793.00
280.55	3798.00
281.02	3846.00
281.50	3642.00
281.97	3738.00
282.44	3632.00
282.91	3617.00
283.39	3598.00
283.86	3588.00
284.33	3563.00
284.81	3606.00
285.28	3572.00
285.75	3629.00
286.23	3628.00
286.70	3579.00
287.17	3595.00
287.65	3642.00
288.12	3611.00
288.59	3591.00
289.07	3515.00
289.54	3639.00
290.01	3583.00
290.48	3604.00
290.96	3558.00
291.43	3626.00
291.90	3677.00
292.38	3530.00
292.85	3641.00
293.32	3565.00
293.79	3613.00
294.27	3580.00
294.74	3558.00
295.21	3595.00
295.69	3584.00
296.16	3689.00
296.63	3670.00
297.10	3613.00
297.58	3638.00
298.05	3616.00
298.52	3595.00
298.99	3661.00
299.47	3583.00
299.94	3647.00
300.41	3532.00
300.88	3627.00
301.36	3637.00
301.83	3591.00
302.30	3560.00
302.77	3602.00
303.25	3650.00
303.72	3565.00
304.19	3611.00
304.66	3573.00
305.13	3571.00
305.61	3609.00
306.08	3573.00
306.55	3597.00
307.02	3577.00
307.49	3532.00
307.97	3583.00
308.44	3553.00
308.91	3591.00
309.38	3587.00
309.86	3599.00
310.33	3600.00
310.80	3573.00
311.27	3582.00
311.74	3625.00
312.21	3591.00
312.69	3663.00
313.16	3581.00
313.63	3588.00
314.10	3601.00
314.57	3574.00
315.05	3544.00
315.52	3645.00
315.99	3617.00
316.46	3618.00
316.93	3669.00
317.40	3589.00
317.88	3755.00
318.35	3613.00
318.82	3604.00
319.29	3572.00
319.76	3630.00
320.23	3681.00
320.70	3612.00
321.18	3623.00
321.65	3546.00
322.12	3559.00
322.59	3657.00
323.06	3599.00
323.53	3711.00
324.00	3567.00
324.48	3646.00
324.95	3592.00
325.42	3583.00
325.89	3612.00
326.36	3629.00
326.83	3651.00
327.30	3675.00
327.77	3657.00
328.24	3665.00
328.72	3628.00
329.19	3635.00
329.66	3628.00
330.13	3607.00
330.60	3717.00
331.07	3656.00
331.54	3720.00
332.01	3589.00
332.48	3725.00
332.95	3638.00
333.43	3665.00
333.90	3701.00
334.37	3676.00
334.84	3659.00
335.31	3808.00
335.78	3584.00
336.25	3617.00
336.72	3596.00
337.19	3653.00
337.66	3635.00
338.13	3572.00
338.60	3732.00
339.07	3653.00
339.54	3536.00
340.01	3578.00
340.49	3557.00
340.96	3568.00
341.43	3595.00
341.90	3543.00
342.37	3554.00
342.84	3603.00
343.31	3574.00
343.78	3536.00
344.25	3517.00
344.72	3561.00
345.19	3578.00
345.66	3587.00
346.13	3511.00
346.60	3485.00
347.07	3589.00
347.54	3539.00
348.01	3602.00
348.48	3607.00
348.95	3538.00
349.42	3577.00
349.89	3596.00
350.36	3594.00
350.83	3516.00
351.30	3603.00
351.77	3651.00
352.24	3596.00
352.71	3579.00
353.18	3570.00
353.65	3608.00
354.12	3538.00
354.59	3563.00
355.06	3531.00
355.53	3617.00
356.00	3556.00
356.47	3642.00
356.94	3528.00
357.41	3681.00
357.88	3583.00
358.35	3525.00
358.82	3542.00
359.28	3535.00
359.75	3563.00
360.22	3594.00
360.69	3657.00
361.16	3553.00
361.63	3572.00
362.10	3551.00
362.57	3609.00
363.04	3583.00
363.51	3727.00
363.98	3576.00
364.45	3499.00
364.92	3634.00
365.39	3531.00
365.86	3531.00
366.32	3591.00
366.79	3573.00
367.26	4755.00
367.73	3590.00
368.20	3536.00
368.67	3619.00
369.14	3517.00
369.61	3593.00
370.08	3596.00
370.55	3535.00
371.02	4277.00
371.48	3571.00
371.95	3568.00
372.42	3548.00
372.89	3565.00
373.36	3595.00
373.83	3585.00
374.30	3589.00
374.77	3583.00
375.23	3581.00
375.70	3647.00
376.17	3584.00
376.64	3555.00
377.11	3539.00
377.58	3618.00
378.05	3629.00
378.51	3600.00
378.98	3582.00
379.45	3629.00
379.92	3597.00
380.39	3717.00
380.86	3567.00
381.33	3655.00
381.79	3647.00
382.26	3546.00
382.73	3616.00
383.20	3629.00
383.67	3601.00
384.14	3588.00
384.60	3796.00
385.07	3643.00
385.54	3569.00
386.01	3612.00
386.48	3675.00
386.94	3542.00
387.41	3543.00
387.88	3620.00
388.35	3563.00
388.82	3641.00
389.28	3578.00
389.75	3603.00
390.22	3590.00
390.69	3613.00
391.16	3639.00
391.62	3577.00
392.09	3585.00
392.56	3591.00
393.03	3585.00
393.50	3703.00
393.96	3589.00
394.43	3641.00
394.90	3623.00
395.37	3624.00
395.83	3791.00
396.30	3563.00
396.77	3620.00
397.24	3697.00
397.70	3596.00
398.17	3621.00
398.64	3599.00
399.11	3632.00
399.57	3649.00
400.04	3611.00
400.51	3637.00
400.98	3600.00
401.44	3667.00
401.91	3621.00
402.38	3666.00
402.84	3599.00
403.31	3659.00
403.78	3644.00
404.25	3701.00
404.71	3696.00
405.18	3676.00
405.65	3606.00
406.12	3716.00
406.58	3607.00
407.05	3752.00
407.52	3691.00
407.98	4235.00
408.45	3675.00
408.92	3629.00
409.38	3751.00
409.85	3673.00
410.32	3681.00
410.78	3685.00
411.25	3783.00
411.72	3722.00
412.18	3709.00
412.65	3755.00
413.12	3764.00
413.59	3777.00
414.05	3779.00
414.52	3840.00
414.98	3789.00
415.45	3862.00
415.92	3889.00
416.38	3865.00
416.85	3913.00
417.32	3872.00
417.78	3844.00
418.25	3858.00
418.72	3903.00
419.18	3962.00
419.65	3921.00
420.12	3928.00
420.58	3925.00
421.05	3991.00
421.51	3935.00
421.98	4000.00
422.45	3945.00
422.91	4005.00
423.38	4042.00
423.85	4050.00
424.31	4016.00
424.78	4084.00
425.24	4038.00
425.71	4110.00
426.18	4068.00
426.64	4146.00
427.11	4139.00
427.57	4114.00
428.04	4059.00
428.51	4110.00
428.97	4123.00
429.44	4072.00
429.90	4055.00
430.37	4176.00
430.83	4050.00
431.30	4199.00
431.77	4335.00
432.23	4270.00
432.70	4253.00
433.16	4208.00
433.63	4266.00
434.09	4251.00
434.56	4344.00
435.03	4345.00
435.49	4418.00
435.96	4397.00
436.42	4329.00
436.89	4396.00
437.35	4408.00
437.82	4408.00
438.28	4327.00
438.75	4381.00
439.21	4579.00
439.68	4485.00
440.14	4452.00
440.61	4546.00
441.07	4496.00
441.54	4531.00
442.00	4734.00
442.47	4542.00
442.94	4583.00
443.40	4686.00
443.87	4611.00
444.33	4755.00
444.80	4645.00
445.26	4663.00
445.73	4671.00
446.19	4699.00
446.65	4726.00
447.12	4862.00
447.58	4740.00
448.05	4750.00
448.51	4870.00
448.98	4913.00
449.44	4893.00
449.91	4944.00
450.37	4987.00
450.84	4975.00
451.30	5004.00
451.77	5006.00
452.23	4893.00
452.70	5024.00
453.16	4933.00
453.62	5008.00
454.09	5052.00
454.55	5066.00
455.02	5041.00
455.48	5079.00
455.95	5190.00
456.41	5117.00
456.88	5196.00
457.34	5115.00
457.80	5135.00
458.27	5013.00
458.73	5136.00
459.20	5132.00
459.66	5195.00
460.13	5148.00
460.59	5109.00
461.05	5217.00
461.52	5255.00
461.98	5171.00
462.45	5150.00
462.91	5205.00
463.37	5206.00
463.84	5215.00
464.30	5133.00
464.76	5100.00
465.23	5153.00
465.69	5215.00
466.16	5133.00
466.62	5179.00
467.08	5137.00
467.55	5181.00
468.01	5259.00
468.48	5229.00
468.94	5157.00
469.40	5193.00
469.87	5143.00
470.33	5160.00
470.79	5240.00
471.26	5283.00
471.72	5260.00
472.18	5294.00
472.65	5260.00
473.11	5317.00
473.57	5295.00
474.04	5247.00
474.50	5327.00
474.96	5348.00
475.43	5369.00
475.89	5341.00
476.35	5313.00
476.82	5301.00
477.28	5396.00
477.74	5522.00
478.21	5397.00
478.67	5479.00
479.13	5411.00
479.59	5554.00
480.06	5537.00
480.52	5433.00
480.98	5488.00
481.45	5517.00
481.91	5547.00
482.37	5502.00
482.84	5473.00
483.30	5447.00
483.76	5467.00
484.22	5548.00
484.69	5449.00
485.15	5308.00
485.61	5197.00
486.07	5202.00
486.54	5170.00
487.00	5379.00
487.46	5339.00
487.92	5484.00
488.39	5528.00
488.85	5581.00
489.31	5669.00
489.77	5719.00
490.24	5651.00
490.70	5685.00
491.16	5587.00
491.62	5570.00
492.09	5543.00
492.55	5811.00
493.01	5762.00
493.47	5770.00
493.94	5911.00
494.40	5903.00
494.86	5856.00
495.32	5840.00
495.78	5987.00
496.25	6030.00
496.71	6067.00
497.17	6285.00
497.63	6130.00
498.09	6059.00
498.56	6197.00
499.02	6203.00
499.48	6349.00
499.94	6317.00
500.40	6254.00
500.87	6247.00
501.33	6313.00
501.79	6510.00
502.25	6493.00
502.71	6941.00
503.17	6668.00
503.64	6731.00
504.10	6747.00
504.56	6930.00
505.02	7049.00
505.48	7253.00
505.94	7267.00
506.40	7417.00
506.87	7423.00
507.33	7463.00
507.79	7564.00
508.25	7659.00
508.71	7978.00
509.17	8071.00
509.63	8154.00
510.10	8291.00
510.56	8426.00
511.02	8735.00
511.48	8959.00
511.94	8777.00
512.40	8868.00
512.86	8985.00
513.32	9213.00
513.78	9251.00
514.25	9509.00
514.71	10330.00
515.17	9949.00
515.63	10239.00
516.09	9981.00
516.55	9696.00
517.01	9997.00
517.47	10534.00
517.93	10593.00
518.39	10997.00
518.85	11360.00
519.32	11742.00
519.78	12207.00
520.24	12355.00
520.70	12771.00
521.16	13222.00
521.62	13500.00
522.08	13662.00
522.54	13582.00
523.00	14087.00
523.46	14665.00
523.92	15155.00
524.38	15437.00
524.84	15518.00
525.30	15689.00
525.76	15558.00
526.22	15167.00
526.68	15048.00
527.14	15780.00
527.60	16560.00
528.06	17089.00
528.52	17632.00
528.98	17849.00
529.44	17860.00
529.90	18060.00
530.36	18571.00
530.82	18940.00
531.28	19177.00
531.74	18958.00
532.20	18520.00
532.66	18543.00
533.12	19115.00
533.58	19375.00
534.04	19536.00
534.50	19728.00
534.96	20253.00
535.42	20746.00
535.88	20684.00
536.34	20322.00
536.80	20327.00
537.26	20748.00
537.72	21103.00
538.18	20968.00
538.64	21198.00
539.10	21055.00
539.56	21118.00
540.02	20665.00
540.48	20801.00
540.94	21134.00
541.40	21567.00
541.86	21915.00
542.32	21890.00
542.78	21701.00
543.24	21949.00
543.69	22391.00
544.15	22667.00
544.61	22443.00
545.07	22661.00
545.53	22706.00
545.99	22856.00
546.45	22916.00
546.91	23164.00
547.37	22672.00
547.83	22896.00
548.29	23233.00
548.74	23481.00
549.20	23666.00
549.66	23731.00
550.12	23932.00
550.58	23772.00
551.04	23947.00
551.50	24133.00
551.96	24398.00
552.42	23989.00
552.87	23828.00
553.33	24087.00
553.79	24337.00
554.25	24241.00
554.71	24580.00
555.17	24633.00
555.63	24521.00
556.08	24232.00
556.54	24012.00
557.00	23830.00
557.46	24029.00
557.92	24111.00
558.38	23456.00
558.83	23182.00
559.29	23359.00
559.75	23299.00
560.21	23603.00
560.67	24104.00
561.13	23783.00
561.58	23244.00
562.04	23320.00
562.50	23346.00
562.96	23600.00
563.42	23417.00
563.87	23076.00
564.33	23158.00
564.79	23104.00
565.25	22776.00
565.71	22243.00
566.16	22340.00
566.62	22393.00
567.08	22610.00
567.54	22449.00
568.00	21868.00
568.45	21458.00
568.91	21530.00
569.37	21693.00
569.83	21363.00
570.28	20869.00
570.74	20531.00
571.20	20561.00
571.66	20687.00
572.11	20819.00
572.57	20763.00
573.03	20438.00
573.49	20359.00
573.94	20358.00
574.40	19983.00
574.86	19829.00
575.32	19550.00
575.77	19496.00
576.23	19279.00
576.69	19439.00
577.15	19229.00
577.60	19077.00
578.06	18673.00
578.52	18614.00
578.97	18705.00
579.43	18630.00
579.89	18838.00
580.34	18571.00
580.80	18454.00
581.26	18580.00
581.72	18559.00
582.17	18537.00
582.63	18451.00
583.09	18538.00
583.54	18276.00
584.00	18255.00
584.46	18078.00
584.91	17982.00
585.37	17680.00
585.83	17401.00
586.28	17653.00
586.74	17699.00
587.20	17482.00
587.65	17451.00
588.11	16979.00
588.57	16385.00
589.02	15648.00
589.48	15785.00
589.94	16239.00
590.39	16644.00
590.85	16616.00
591.30	16594.00
591.76	16602.00
592.22	16602.00
592.67	16451.00
593.13	16588.00
593.59	16628.00
594.04	16558.00
594.50	16361.00
594.95	16325.00
595.41	16405.00
595.87	16466.00
596.32	16475.00
596.78	16587.00
597.23	16489.00
597.69	16216.00
598.15	16161.00
598.60	16282.00
599.06	16387.00
599.51	16353.00
599.97	16340.00
600.43	16204.00
600.88	16137.00
601.34	16096.00
601.79	15875.00
602.25	16004.00
602.70	16020.00
603.16	16211.00
603.61	16240.00
604.07	16010.00
604.53	16125.00
604.98	16056.00
605.44	15909.00
605.89	15753.00
606.35	15788.00
606.80	15776.00
607.26	15577.00
607.71	15498.00
608.17	15373.00
608.62	15083.00
609.08	15263.00
609.53	15155.00
609.99	14759.00
610.44	14777.00
610.90	14804.00
611.35	14657.00
611.81	14697.00
612.26	14559.00
612.72	14451.00
613.17	14567.00
613.63	14096.00
614.08	14069.00
614.54	14164.00
614.99	14120.00
615.45	13923.00
615.90	13695.00
616.36	13448.00
616.81	13527.00
617.27	13667.00
617.72	13768.00
618.18	13648.00
618.63	13592.00
619.09	13537.00
619.54	13648.00
619.99	13551.00
620.45	13537.00
620.90	13465.00
621.36	13359.00
621.81	13387.00
622.27	13330.00
622.72	13267.00
623.18	13055.00
623.63	13173.00
624.08	13113.00
624.54	12858.00
624.99	12826.00
625.45	12917.00
625.90	12844.00
626.35	13020.00
626.81	13083.00
627.26	12859.00
627.72	12661.00
628.17	12707.00
628.62	12923.00
629.08	12787.00
629.53	12827.00
629.99	12635.00
630.44	12859.00
630.89	12915.00
631.35	12847.00
631.80	12679.00
632.26	12887.00
632.71	12944.00
633.16	12927.00
633.62	12855.00
634.07	12765.00
634.52	12789.00
634.98	12879.00
635.43	12699.00
635.88	12582.00
636.34	12540.00
636.79	12562.00
637.24	12550.00
637.70	12557.00
638.15	12543.00
638.60	12368.00
639.06	12295.00
639.51	12069.00
639.96	11861.00
640.42	11879.00
640.87	11779.00
641.32	11615.00
641.78	11474.00
642.23	11363.00
642.68	11267.00
643.14	11281.00
643.59	11156.00
644.04	11028.00
644.49	10948.00
644.95	10761.00
645.40	10625.00
645.85	10430.00
646.31	10375.00
646.76	10346.00
647.21	10210.00
647.66	10019.00
648.12	9990.00
648.57	9871.00
649.02	9863.00
649.47	9565.00
649.93	9793.00
650.38	9713.00
650.83	9806.00
651.28	9517.00
651.74	9451.00
652.19	9479.00
652.64	9461.00
653.09	9358.00
653.55	9344.00
654.00	9274.00
654.45	9193.00
654.90	9018.00
655.35	8818.00
655.81	8399.00
656.26	7993.00
656.71	8292.00
657.16	8518.00
657.62	8703.00
658.07	8691.00
658.52	8626.00
658.97	8427.00
659.42	8584.00
659.88	8347.00
660.33	8371.00
660.78	8342.00
661.23	8159.00
661.68	8061.00
662.13	7969.00
662.59	7937.00
663.04	7860.00
663.49	7669.00
663.94	7675.00
664.39	7654.00
664.84	7479.00
665.30	7391.00
665.75	7332.00
666.20	7220.00
666.65	7196.00
667.10	7315.00
667.55	7110.00
668.00	7082.00
668.46	7053.00
668.91	7023.00
669.36	7019.00
669.81	6902.00
670.26	6848.00
670.71	6829.00
671.16	6805.00
671.61	6726.00
672.06	6807.00
672.52	6662.00
672.97	6731.00
673.42	6705.00
673.87	6777.00
674.32	6595.00
674.77	6641.00
675.22	6488.00
675.67	6544.00
676.12	6602.00
676.57	6603.00
677.02	6536.00
677.47	6545.00
677.93	6604.00
678.38	6569.00
678.83	6653.00
679.28	6602.00
679.73	6697.00
680.18	6590.00
680.63	6624.00
681.08	6594.00
681.53	6615.00
681.98	6754.00
682.43	6812.00
682.88	6918.00
683.33	7004.00
683.78	6981.00
684.23	7111.00
684.68	7168.00
685.13	7340.00
685.58	7402.00
686.03	7447.00
686.48	7191.00
686.93	6905.00
687.38	6979.00
687.83	7529.00
688.28	7971.00
688.73	8348.00
689.18	8498.00
689.63	8707.00
690.08	9121.00
690.53	9620.00
690.98	10048.00
691.43	10661.00
691.88	10980.00
692.33	11613.00
692.78	12028.00
693.23	12754.00
693.68	13080.00
694.13	13487.00
694.58	14347.00
695.03	15242.00
695.48	15798.00
695.93	16362.00
696.38	17603.00
696.83	18403.00
697.28	19092.00
697.72	19487.00
698.17	20134.00
698.62	20873.00
699.07	21481.00
699.52	22173.00
699.97	22933.00
700.42	23599.00
700.87	24461.00
701.32	25152.00
701.77	25702.00
702.22	26318.00
702.67	27066.00
703.11	28133.00
703.56	29080.00
704.01	29906.00
704.46	30768.00
704.91	31508.00
705.36	32054.00
705.81	32881.00
706.26	33154.00
706.70	34047.00
707.15	34808.00
707.60	35424.00
708.05	36241.00
708.50	36684.00
708.95	37304.00
709.40	37758.00
709.84	38450.00
710.29	38993.00
710.74	39510.00
711.19	39992.00
711.64	40624.00
712.09	40993.00
712.53	41532.00
712.98	41950.00
713.43	42547.00
713.88	43004.00
714.33	43244.00
714.78	43065.00
715.22	43367.00
715.67	43863.00
716.12	43317.00
716.57	41824.00
717.02	40223.00
717.46	39336.00
717.91	38935.00
718.36	38101.00
718.81	37882.00
719.26	38078.00
719.70	38716.00
720.15	39388.00
720.60	41204.00
721.05	43971.00
721.49	46066.00
721.94	46851.00
722.39	46895.00
722.84	45753.00
723.28	44104.00
723.73	43680.00
724.18	43832.00
724.63	44424.00
725.07	44628.00
725.52	45496.00
725.97	45942.00
726.42	46621.00
726.86	47379.00
727.31	46655.00
727.76	46731.00
728.21	47642.00
728.65	47860.00
729.10	47370.00
729.55	48471.00
729.99	49515.00
730.44	49691.00
730.89	50029.00
731.33	51276.00
731.78	52309.00
732.23	53805.00
732.68	54601.00
733.12	55315.00
733.57	56208.00
734.02	57184.00
734.46	57672.00
734.91	57420.00
735.36	58010.00
735.80	57999.00
736.25	58370.00
736.70	58921.00
737.14	59427.00
737.59	59915.00
738.04	59596.00
738.48	58910.00
738.93	59136.00
739.37	60027.00
739.82	60878.00
740.27	61071.00
740.71	60976.00
741.16	60999.00
741.61	61110.00
742.05	61116.00
742.50	61676.00
742.94	62101.00
743.39	62541.00
743.84	62484.00
744.28	62300.00
744.73	62616.00
745.18	62998.00
745.62	63347.00
746.07	63316.00
746.51	63307.00
746.96	63419.00
747.40	62948.00
747.85	62968.00
748.30	62740.00
748.74	62844.00
749.19	62410.00
749.63	62840.00
750.08	63103.00
750.52	62740.00
750.97	62587.00
751.42	62784.00
751.86	62603.00
752.31	62390.00
752.75	62257.00
753.20	62380.00
753.64	62431.00
754.09	62561.00
754.53	62687.00
754.98	62496.00
755.42	62443.00
755.87	62216.00
756.31	62053.00
756.76	61386.00
757.20	61216.00
757.65	60509.00
758.09	59697.00
758.54	58069.00
758.98	51648.00
759.43	40554.00
759.87	28637.00
760.32	21395.00
760.76	20985.00
761.21	26181.00
761.65	32421.00
762.10	34166.00
762.54	32192.00
762.99	30624.00
763.43	31246.00
763.88	33603.00
764.32	36615.00
764.77	39847.00
765.21	42640.00
765.66	45282.00
766.10	47908.00
766.54	50525.00
766.99	52866.00
767.43	54597.00
767.88	55816.00
768.32	57016.00
768.77	57660.00
769.21	58941.00
769.66	59211.00
770.10	60218.00
770.54	60481.00
770.99	60470.00
771.43	60604.00
771.88	60367.00
772.32	60246.00
772.76	60324.00
773.21	60223.00
773.65	60090.00
774.10	59401.00
774.54	59341.00
774.98	59701.00
775.43	60398.00
775.87	61082.00
776.31	60996.00
776.76	60954.00
777.20	60692.00
777.65	60230.00
778.09	59947.00
778.53	59653.00
778.98	59468.00
779.42	59041.00
779.86	59376.00
780.31	58960.00
780.75	59534.00
781.19	59852.00
781.64	60090.00
782.08	60148.00
782.52	59818.00
782.97	59019.00
783.41	58519.00
783.85	58062.00
784.30	57997.00
784.74	58007.00
785.18	57667.00
785.63	57460.00
786.07	57739.00
786.51	57889.00
786.95	58093.00
787.40	57673.00
787.84	57481.00
788.28	57164.00
788.73	56536.00
789.17	56045.00
789.61	55399.00
790.05	55245.00
790.50	54883.00
790.94	54591.00
791.38	54774.00
791.82	55107.00
792.27	54932.00
792.71	55013.00
793.15	55390.00
793.59	54979.00
794.04	54725.00
794.48	54573.00
794.92	54055.00
795.36	53602.00
795.81	52922.00
796.25	52895.00
796.69	53198.00
797.13	53994.00
797.57	54324.00
798.02	54577.00
798.46	54820.00
798.90	54361.00
799.34	53813.00
799.79	53360.00
800.23	52449.00
800.67	52161.00
801.11	52081.00
801.55	51778.00
801.99	51619.00
802.44	52050.00
802.88	51933.00
803.32	52706.00
803.76	52604.00
804.20	52720.00
804.64	52799.00
805.09	52918.00
805.53	52728.00
805.97	52092.00
806.41	51588.00
806.85	51089.00
807.29	50646.00
807.74	50544.00
808.18	50460.00
808.62	50082.00
809.06	50388.00
809.50	50400.00
809.94	50408.00
810.38	50473.00
810.82	50826.00
811.27	50478.00
811.71	49406.00
812.15	48471.00
812.59	46964.00
813.03	45899.00
813.47	44364.00
813.91	42952.00
814.35	42586.00
814.79	42212.00
815.23	41836.00
815.67	41165.00
816.12	41656.00
816.56	41309.00
817.00	41714.00
817.44	42117.00
817.88	41937.00
818.32	41431.00
818.76	41644.00
819.20	41483.00
819.64	41918.00
820.08	42382.00
820.52	43735.00
820.96	44357.00
821.40	43655.00
821.84	42200.00
822.28	39885.00
822.72	39383.00
823.16	39629.00
823.60	41545.00
824.04	44379.00
824.48	45146.00
824.92	45029.00
825.36	44891.00
825.80	44290.00
826.24	44018.00
826.68	43373.00
827.12	43263.00
827.56	42477.00
828.00	42489.00
828.44	42872.00
828.88	43401.00
829.32	43770.00
829.76	43968.00
830.20	44540.00
830.64	44006.00
831.08	43853.00
831.52	43214.00
831.96	42528.00
832.40	42048.00
832.84	42666.00
833.28	43010.00
833.72	43698.00
834.16	44432.00
834.60	45769.00
835.04	46387.00
835.48	46524.00
835.91	46551.00
836.35	46342.00
836.79	45784.00
837.23	45597.00
837.67	45054.00
838.11	44821.00
838.55	45128.00
838.99	44903.00
839.43	45454.00
839.87	45888.00
840.30	46440.00
840.74	47272.00
841.18	47527.00
841.62	47906.00
842.06	47794.00
842.50	47397.00
842.94	46903.00
843.38	46499.00
843.81	45390.00
844.25	45302.00
844.69	44885.00
845.13	44675.00
845.57	44921.00
846.01	45260.00
846.45	45457.00
846.88	46034.00
847.32	46831.00
847.76	47399.00
848.20	47336.00
848.64	46791.00
849.08	45928.00
849.51	45816.00
849.95	44761.00
850.39	44702.00
850.83	45148.00
851.27	44827.00
851.70	44278.00
852.14	44028.00
852.58	43226.00
853.02	41783.00
853.46	40540.00
853.89	40668.00
854.33	40511.00
854.77	42424.00
855.21	45092.00
855.65	46282.00
856.08	46789.00
856.52	46906.00
856.96	46482.00
857.40	45608.00
857.83	44895.00
858.27	44254.00
858.71	43409.00
859.15	43292.00
859.58	43531.00
860.02	44189.00
860.46	44519.00
860.89	45463.00
861.33	45824.00
861.77	46366.00
862.21	46851.00
862.64	46777.00
863.08	46710.00
863.52	46237.00
863.95	45472.00
864.39	44420.00
864.83	42654.00
865.27	40906.00
865.70	40609.00
866.14	39813.00
866.58	39817.00
867.01	41915.00
867.45	43216.00
867.89	44326.00
868.32	45301.00
868.76	45553.00
869.20	45861.00
869.63	46015.00
870.07	45291.00
870.51	44057.00
870.94	43420.00
871.38	42516.00
871.82	41584.00
872.25	41471.00
872.69	41248.00
873.13	41404.00
873.56	42096.00
874.00	42683.00
874.43	43387.00
874.87	43938.00
875.31	44383.00
875.74	44487.00
876.18	44805.00
876.61	44747.00
877.05	44346.00
877.49	43509.00
877.92	43035.00
878.36	42295.00
878.79	41694.00
879.23	40892.00
879.67	40057.00
880.10	40150.00
880.54	40233.00
880.97	40691.00
881.41	41973.00
881.84	43087.00
882.28	43669.00
882.72	44486.00
883.15	45021.00
883.59	45214.00
884.02	44963.00
884.46	44549.00
884.89	43578.00
885.33	42855.00
885.76	41489.00
886.20	40779.00
886.63	40249.00
887.07	39747.00
887.50	39924.00
887.94	40151.00
888.37	40449.00
888.81	41265.00
889.24	41135.00
889.68	42008.00
890.11	42525.00
890.55	43159.00
890.98	43207.00
891.42	43315.00
891.85	42967.00
892.29	42517.00
892.72	41395.00
893.16	40212.00
893.59	39211.00
894.03	38011.00
894.46	36637.00
894.90	35643.00
895.33	34063.00
895.77	33898.00
896.20	33682.00
896.63	33920.00
897.07	34179.00
897.50	33733.00
897.94	34017.00
898.37	35235.00
898.81	33089.00
899.24	33068.00
899.68	34821.00
900.11	33871.00
900.54	32956.00
900.98	32676.00
901.41	32237.00
901.85	32639.00
902.28	32600.00
902.71	33133.00
903.15	34501.00
903.58	35412.00
904.02	35285.00
904.45	35584.00
904.88	35172.00
905.32	34917.00
905.75	34848.00
906.18	33855.00
906.62	33853.00
907.05	33068.00
907.48	33297.00
907.92	32770.00
908.35	32730.00
908.79	32216.00
909.22	31767.00
909.65	31308.00
910.09	31232.00
910.52	30862.00
910.95	31037.00
911.38	31177.00
911.82	29960.00
912.25	30877.00
912.68	31374.00
913.12	31353.00
913.55	31424.00
913.98	32475.00
914.42	33767.00
914.85	34237.00
915.28	32567.00
915.72	31892.00
916.15	31666.00
916.58	31721.00
917.01	30821.00
917.45	29877.00
917.88	30947.00
918.31	31249.00
918.74	32547.00
919.18	32813.00
919.61	32742.00
920.04	33776.00
920.47	33848.00
920.91	34183.00
921.34	34044.00
921.77	34314.00
922.20	34855.00
922.64	34777.00
923.07	34473.00
923.50	33797.00
923.93	33432.00
924.37	33221.00
924.80	32504.00
925.23	32009.00
925.66	30835.00
926.09	29451.00
926.53	28922.00
926.96	27635.00
927.39	26455.00
927.82	25227.00
928.25	24292.00
928.69	23711.00
929.12	23373.00
929.55	22042.00
929.98	21128.00
930.41	19820.00
930.84	18981.00
931.28	17543.00
931.71	16066.00
932.14	14436.00
932.57	13748.00
933.00	13138.00
933.43	12514.00
933.86	11795.00
934.30	11234.00
934.73	12845.00
935.16	12069.00
935.59	11284.00
936.02	12067.00
936.45	11715.00
936.88	11794.00
937.31	12947.00
937.75	13486.00
938.18	14419.00
938.61	14956.00
939.04	15852.00
939.47	15483.00
939.90	14345.00
940.33	13750.00
940.76	12900.00
941.19	12274.00
941.62	12014.00
942.05	11841.00
942.48	10561.00
942.91	10637.00
943.35	11358.00
943.78	10479.00
944.21	10371.00
944.64	11378.00
945.07	11649.00
945.50	11367.00
945.93	11655.00
946.36	12249.00
946.79	12509.00
947.22	13357.00
947.65	12941.00
948.08	12455.00
948.51	13307.00
948.94	13727.00
949.37	13020.00
949.80	12291.00
950.23	12712.00
950.66	13401.00
951.09	13307.00
951.52	12621.00
951.95	12736.00
952.38	13323.00
952.81	14137.00
953.24	14885.00
953.67	15085.00
954.10	14930.00
954.53	15421.00
954.96	15492.00
955.39	15916.00
955.82	16859.00
956.25	16132.00
956.68	16566.00
957.11	16991.00
957.53	16433.00
957.96	16153.00
958.39	15933.00
958.82	15279.00
959.25	15752.00
959.68	16595.00
960.11	16870.00
960.54	17076.00
960.97	18143.00
961.40	18650.00
961.83	18469.00
962.26	18965.00
962.68	20436.00
963.11	20621.00
963.54	20787.00
963.97	21191.00
964.40	20891.00
964.83	21445.00
965.26	21749.00
965.69	21323.00
966.11	21188.00
966.54	21324.00
966.97	22389.00
967.40	22440.00
967.83	22593.00
968.26	22600.00
968.69	22668.00
969.11	22976.00
969.54	22685.00
969.97	22931.00
970.40	23453.00
970.83	23448.00
971.26	23827.00
971.68	23739.00
972.11	23862.00
972.54	24296.00
972.97	23931.00
973.40	23629.00
973.82	23711.00
974.25	23649.00
974.68	23192.00
975.11	22899.00
975.54	22378.00
975.96	22150.00
976.39	22207.00
976.82	22280.00
977.25	22031.00
977.67	21965.00
978.10	22273.00
978.53	22415.00
978.96	23099.00
979.38	23523.00
979.81	23692.00
980.24	24584.00
980.67	24923.00
981.09	25477.00
981.52	25550.00
981.95	25716.00
982.38	25769.00
982.80	25968.00
983.23	26273.00
983.66	26282.00
984.08	25975.00
984.51	25654.00
984.94	25588.00
985.37	25265.00
985.79	24590.00
986.22	24282.00
986.65	23922.00
987.07	23659.00
987.50	23679.00
987.93	23565.00
988.35	23653.00
988.78	23917.00
989.21	24180.00
989.63	24442.00
990.06	24983.00
990.49	25233.00
990.91	25814.00
991.34	25905.00
991.77	26110.00
992.19	26027.00
992.62	25949.00
993.05	25662.00
993.47	25433.00
993.90	25094.00
994.32	24722.00
994.75	24321.00
995.18	23901.00
995.60	23633.00
996.03	23183.00
996.45	23007.00
996.88	22686.00
997.31	22720.00
997.73	22639.00
998.16	22701.00
998.58	23109.00
999.01	22924.00
999.44	23358.00
999.86	23657.00
1000.29	23813.00
1000.71	23897.00
1001.14	24015.00
1001.56	23995.00
1001.99	23803.00
1002.41	23426.00
1002.84	23060.00
1003.27	22488.00
1003.69	21920.00
1004.12	21499.00
1004.54	21159.00
1004.97	20857.00
1005.39	20481.00
1005.82	20451.00
1006.24	20435.00
1006.67	20347.00
1007.09	20252.00
1007.52	20258.00
1007.94	20211.00
1008.37	20525.00
1008.79	20290.00
1009.22	20411.00
1009.64	20581.00
1010.07	20599.00
1010.49	20747.00
1010.92	20687.00
1011.34	20795.00
1011.77	20668.00
1012.19	20647.00
1012.62	20515.00
1013.04	20130.00
1013.46	19780.00
1013.89	19177.00
1014.31	18854.00
1014.74	18711.00
1015.16	18449.00
1015.59	18245.00
1016.01	18258.00
1016.44	18249.00
1016.86	19165.00
1017.28	18439.00
1017.71	18631.00
1018.13	18857.00
1018.56	18886.00
1018.98	18959.00
1019.40	19204.00
1019.83	19357.00
1020.25	19392.00
1020.68	19550.00
1021.10	19771.00
1021.52	19810.00
1021.95	20097.00
1022.37	19903.00
1022.79	19897.00
1023.22	19651.00
1023.64	19467.00
1024.07	19104.00
1024.49	18983.00
1024.91	18551.00
1025.34	18462.00
1025.76	18347.00
1026.18	18209.00
1026.61	18062.00
1027.03	17835.00
1027.45	17967.00
1027.88	17948.00
1028.30	18204.00
1028.72	18210.00
1029.15	18450.00
1029.57	18332.00
1029.99	18575.00
1030.41	18439.00
1030.84	18485.00
1031.26	18205.00
1031.68	18066.00
1032.11	17977.00
1032.53	17866.00
1032.95	17677.00
1033.37	17250.00
1033.80	17117.00
1034.22	16675.00
1034.64	16621.00
1035.06	16249.00
1035.49	15968.00
1035.91	15868.00
1036.33	15604.00
1036.75	15528.00
1037.18	15442.00
1037.60	15351.00
1038.02	15217.00
1038.44	15471.00
1038.87	15321.00
1039.29	15233.00
1039.71	15370.00
1040.13	15432.00
1040.55	15385.00
1040.98	15490.00
1041.40	15386.00
1041.82	15299.00
1042.24	14862.00
1042.66	14898.00
1043.09	14634.00
1043.51	14315.00
1043.93	14141.00
1044.35	13963.00
1044.77	13729.00
1045.20	13569.00
1045.62	13331.00
1046.04	13265.00
1046.46	13075.00
1046.88	12794.00
1047.30	12841.00
1047.72	12666.00
1048.15	12571.00
1048.57	12495.00
1048.99	12555.00
1049.41	12469.00
1049.83	12461.00
1050.25	12546.00
1050.67	12273.00
1051.09	12281.00
1051.52	12268.00
1051.94	12057.00
1052.36	12220.00
1052.78	12053.00
1053.20	12038.00
1053.62	11891.00
1054.04	11780.00
1054.46	11590.00
1054.88	11610.00
1055.30	11438.00
1055.72	11221.00
1056.14	11199.00
1056.57	11208.00
1056.99	10782.00
1057.41	10706.00
1057.83	10609.00
1058.25	10414.00
1058.67	10246.00
1059.09	10251.00
1059.51	10148.00
1059.93	9982.00
1060.35	9941.00
1060.77	9826.00
1061.19	9878.00
1061.61	9786.00
1062.03	9670.00
1062.45	9627.00
1062.87	9686.00
1063.29	9599.00
1063.71	9553.00
1064.13	9416.00
1064.55	9378.00
1064.97	9410.00
1065.39	9276.00
1065.81	9174.00
1066.23	9090.00
1066.65	9021.00
1067.07	9070.00
1067.49	8800.00
1067.91	8663.00
1068.33	8487.00
1068.75	8686.00
1069.17	8554.00
1069.59	8541.00
1070.00	8321.00
1070.42	8250.00
1070.84	8225.00
1071.26	8123.00
1071.68	8010.00
1072.10	8099.00
1072.52	8031.00
1072.94	7957.00
1073.36	7892.00
1073.78	7887.00
1074.20	7847.00
1074.62	7825.00
1075.03	7889.00
1075.45	7817.00
1075.87	7796.00
1076.29	7791.00
1076.71	7716.00
1077.13	7674.00
1077.55	7551.00
1077.97	7568.00
1078.38	7456.00
1078.80	7393.00
1079.22	7329.00
1079.64	7188.00
1080.06	7089.00
1080.48	7072.00
1080.89	6913.00
1081.31	6903.00
1081.73	6847.00
1082.15	6797.00
1082.57	6846.00
1082.99	6695.00
1083.40	6652.00
1083.82	6639.00
1084.24	6547.00
1084.66	6625.00
1085.08	6539.00
1085.49	6586.00
1085.91	6527.00
1086.33	7805.00
1086.75	6479.00
1087.17	6457.00
1087.58	6478.00
1088.00	6413.00
1088.42	6420.00
1088.84	6321.00
1089.25	6288.00
1089.67	6193.00
1090.09	6160.00
1090.51	6054.00
1090.92	6076.00
1091.34	5911.00
1091.76	5840.00
1092.18	5780.00
1092.59	5741.00
1093.01	5676.00
1093.43	5669.00
1093.84	5543.00
1094.26	5540.00
1094.68	5554.00
1095.10	5435.00
1095.51	5449.00
1095.93	5434.00
1096.35	5459.00
1096.76	5427.00
1097.18	5374.00
1097.60	5349.00
1098.01	5233.00
1098.43	5156.00
1098.85	5168.00
1099.26	5123.00
1099.68	5082.00
1100.10	4971.00
1100.51	4943.00
1100.93	4854.00
1101.35	4821.00
1101.76	4800.00
1102.18	5221.00
1102.60	4775.00
1103.01	4628.00
1103.43	4738.00
1103.84	4612.00
1104.26	4599.00
1104.68	4650.00
1105.09	4590.00
1105.51	4537.00
1105.92	4594.00
1106.34	4501.00
1106.76	4511.00
1107.17	4410.00
1107.59	4371.00
1108.00	4253.00
1108.42	4272.00
1108.83	4178.00
1109.25	4168.00
1109.67	4085.00
1110.08	4066.00
1110.50	4074.00
1110.91	4086.00
1111.33	3977.00
1111.74	4002.00
1112.16	3938.00
1112.57	3935.00
1112.99	3831.00
1113.41	3785.00
1113.82	3716.00
1114.24	3644.00
1114.65	3585.00
1115.07	3481.00
1115.48	3371.00
1115.90	2183.00
1116.31	2217.00
1116.73	2214.00
1117.14	2211.00
>>>>>End Processed Spectral Data<<<<<
