SpectraSuite Data File
++++++++++++++++++++++++++++++++++++
Date: Tue May 29 13:10:33 EEST 2018
User: CanSEE
Dark Spectrum Present: No
Reference Spectrum Present: No
Number of Sampled Component Spectra: 1
Spectrometers: MAYP11278
Integration Time (usec): 230000 (MAYP11278)
Spectra Averaged: 1 (MAYP11278)
Boxcar Smoothing: 0 (MAYP11278)
Correct for Electrical Dark: No (MAYP11278)
Strobe/Lamp Enabled: No (MAYP11278)
Correct for Detector Non-linearity: No (MAYP11278)
Correct for Stray Light: No (MAYP11278)
Number of Pixels in Processed Spectrum: 2068
>>>>>Begin Processed Spectral Data<<<<<
187.82	2334.00
188.30	2233.00
188.78	2203.00
189.26	2213.00
189.73	3191.00
190.21	3302.00
190.69	3410.00
191.17	3389.00
191.64	3470.00
192.12	3386.00
192.60	3382.00
193.07	3347.00
193.55	3396.00
194.03	3397.00
194.51	3409.00
194.98	3397.00
195.46	3439.00
195.94	3395.00
196.42	3409.00
196.89	3482.00
197.37	3428.00
197.85	3393.00
198.32	3380.00
198.80	3403.00
199.28	3421.00
199.76	3419.00
200.23	3438.00
200.71	3416.00
201.19	3493.00
201.66	3438.00
202.14	3404.00
202.62	3358.00
203.09	3432.00
203.57	3415.00
204.05	3431.00
204.53	3504.00
205.00	3371.00
205.48	3405.00
205.96	3493.00
206.43	3407.00
206.91	3410.00
207.39	3553.00
207.86	3447.00
208.34	3453.00
208.82	3429.00
209.29	3467.00
209.77	3475.00
210.25	3437.00
210.72	3460.00
211.20	3462.00
211.68	3393.00
212.15	3364.00
212.63	3455.00
213.11	3454.00
213.58	3399.00
214.06	3530.00
214.53	3422.00
215.01	3498.00
215.49	3460.00
215.96	3456.00
216.44	3462.00
216.92	3451.00
217.39	3396.00
217.87	3433.00
218.35	3503.00
218.82	3354.00
219.30	3389.00
219.77	3409.00
220.25	3455.00
220.73	3492.00
221.20	3408.00
221.68	3461.00
222.15	3379.00
222.63	3469.00
223.11	3394.00
223.58	3498.00
224.06	3385.00
224.53	3341.00
225.01	3410.00
225.49	3444.00
225.96	3396.00
226.44	3462.00
226.91	3475.00
227.39	3426.00
227.87	3488.00
228.34	3476.00
228.82	3439.00
229.29	3429.00
229.77	3431.00
230.24	3433.00
230.72	3505.00
231.20	3531.00
231.67	3457.00
232.15	3423.00
232.62	3392.00
233.10	3411.00
233.57	3459.00
234.05	3600.00
234.53	3459.00
235.00	3439.00
235.48	3448.00
235.95	3426.00
236.43	3492.00
236.90	3521.00
237.38	3395.00
237.85	3455.00
238.33	3432.00
238.80	3449.00
239.28	3407.00
239.75	3399.00
240.23	3415.00
240.71	3517.00
241.18	3425.00
241.66	3418.00
242.13	3501.00
242.61	3449.00
243.08	3403.00
243.56	3399.00
244.03	3474.00
244.51	3549.00
244.98	3429.00
245.46	3501.00
245.93	5120.00
246.41	3385.00
246.88	3433.00
247.36	3431.00
247.83	3452.00
248.31	3470.00
248.78	3404.00
249.26	3429.00
249.73	3478.00
250.21	3444.00
250.68	3509.00
251.16	3459.00
251.63	3505.00
252.10	3514.00
252.58	3415.00
253.05	3516.00
253.53	3433.00
254.00	3474.00
254.48	3454.00
254.95	3463.00
255.43	3492.00
255.90	3417.00
256.38	3488.00
256.85	3442.00
257.33	3485.00
257.80	3567.00
258.27	3481.00
258.75	3442.00
259.22	3431.00
259.70	3453.00
260.17	3503.00
260.65	3435.00
261.12	3445.00
261.59	3527.00
262.07	3422.00
262.54	3489.00
263.02	3446.00
263.49	3429.00
263.97	3528.00
264.44	3494.00
264.91	3433.00
265.39	3503.00
265.86	3463.00
266.34	3501.00
266.81	3463.00
267.28	3437.00
267.76	3453.00
268.23	3456.00
268.71	3338.00
269.18	3357.00
269.65	3385.00
270.13	3485.00
270.60	3485.00
271.08	3461.00
271.55	3462.00
272.02	3399.00
272.50	3419.00
272.97	3368.00
273.44	3452.00
273.92	3559.00
274.39	3472.00
274.87	3458.00
275.34	3399.00
275.81	3453.00
276.29	3455.00
276.76	3480.00
277.23	3326.00
277.71	3387.00
278.18	3335.00
278.65	3551.00
279.13	3360.00
279.60	3388.00
280.07	3668.00
280.55	3675.00
281.02	3715.00
281.50	3537.00
281.97	3631.00
282.44	3468.00
282.91	3502.00
283.39	3503.00
283.86	3455.00
284.33	3439.00
284.81	3520.00
285.28	3474.00
285.75	3488.00
286.23	3498.00
286.70	3407.00
287.17	3473.00
287.65	3517.00
288.12	3433.00
288.59	3474.00
289.07	3390.00
289.54	3539.00
290.01	3399.00
290.48	3469.00
290.96	3450.00
291.43	3501.00
291.90	3568.00
292.38	3415.00
292.85	3531.00
293.32	3448.00
293.79	3454.00
294.27	3464.00
294.74	3455.00
295.21	3465.00
295.69	3521.00
296.16	3565.00
296.63	3513.00
297.10	3500.00
297.58	3476.00
298.05	3503.00
298.52	3505.00
298.99	3560.00
299.47	3420.00
299.94	3504.00
300.41	3451.00
300.88	3497.00
301.36	3513.00
301.83	3531.00
302.30	3426.00
302.77	3515.00
303.25	3540.00
303.72	3437.00
304.19	3440.00
304.66	3444.00
305.13	3487.00
305.61	3504.00
306.08	3447.00
306.55	3535.00
307.02	3478.00
307.49	3480.00
307.97	3485.00
308.44	3474.00
308.91	3477.00
309.38	3524.00
309.86	3494.00
310.33	3479.00
310.80	3486.00
311.27	3478.00
311.74	3521.00
312.21	3485.00
312.69	3517.00
313.16	3460.00
313.63	3506.00
314.10	3471.00
314.57	3440.00
315.05	3435.00
315.52	3558.00
315.99	3468.00
316.46	3527.00
316.93	3504.00
317.40	3519.00
317.88	3619.00
318.35	3525.00
318.82	3457.00
319.29	3460.00
319.76	3513.00
320.23	3573.00
320.70	3553.00
321.18	3456.00
321.65	3420.00
322.12	3456.00
322.59	3573.00
323.06	3433.00
323.53	3670.00
324.00	3459.00
324.48	3489.00
324.95	3489.00
325.42	3542.00
325.89	3494.00
326.36	3501.00
326.83	3519.00
327.30	3559.00
327.77	3519.00
328.24	3524.00
328.72	3497.00
329.19	3523.00
329.66	3467.00
330.13	3531.00
330.60	3506.00
331.07	3557.00
331.54	3571.00
332.01	3514.00
332.48	3606.00
332.95	3523.00
333.43	3568.00
333.90	3581.00
334.37	3501.00
334.84	3553.00
335.31	3681.00
335.78	3499.00
336.25	3493.00
336.72	3530.00
337.19	3510.00
337.66	3484.00
338.13	3481.00
338.60	3629.00
339.07	3551.00
339.54	3498.00
340.01	3471.00
340.49	3458.00
340.96	3546.00
341.43	3559.00
341.90	3478.00
342.37	3507.00
342.84	3512.00
343.31	3549.00
343.78	3488.00
344.25	3507.00
344.72	3502.00
345.19	3524.00
345.66	3555.00
346.13	3497.00
346.60	3454.00
347.07	3599.00
347.54	3513.00
348.01	3509.00
348.48	3525.00
348.95	3454.00
349.42	3510.00
349.89	3554.00
350.36	3536.00
350.83	3464.00
351.30	3509.00
351.77	3571.00
352.24	3515.00
352.71	3508.00
353.18	3515.00
353.65	3568.00
354.12	3534.00
354.59	3577.00
355.06	3500.00
355.53	3598.00
356.00	3480.00
356.47	3596.00
356.94	3461.00
357.41	3650.00
357.88	3517.00
358.35	3482.00
358.82	3476.00
359.28	3513.00
359.75	3512.00
360.22	3517.00
360.69	3598.00
361.16	3527.00
361.63	3534.00
362.10	3511.00
362.57	3515.00
363.04	3505.00
363.51	3629.00
363.98	3553.00
364.45	3505.00
364.92	3534.00
365.39	3506.00
365.86	3460.00
366.32	3513.00
366.79	3512.00
367.26	4355.00
367.73	3541.00
368.20	3501.00
368.67	3537.00
369.14	3471.00
369.61	3565.00
370.08	3539.00
370.55	3484.00
371.02	4321.00
371.48	3540.00
371.95	3471.00
372.42	3471.00
372.89	3504.00
373.36	3532.00
373.83	3482.00
374.30	3483.00
374.77	3551.00
375.23	3491.00
375.70	3596.00
376.17	3479.00
376.64	3464.00
377.11	3456.00
377.58	3534.00
378.05	3525.00
378.51	3542.00
378.98	3504.00
379.45	3521.00
379.92	3535.00
380.39	3656.00
380.86	3515.00
381.33	3595.00
381.79	3582.00
382.26	3479.00
382.73	3497.00
383.20	3524.00
383.67	3568.00
384.14	3521.00
384.60	3783.00
385.07	3515.00
385.54	3533.00
386.01	3534.00
386.48	3586.00
386.94	3465.00
387.41	3459.00
387.88	3550.00
388.35	3502.00
388.82	3560.00
389.28	3466.00
389.75	3557.00
390.22	3505.00
390.69	3579.00
391.16	3545.00
391.62	3503.00
392.09	3529.00
392.56	3500.00
393.03	3502.00
393.50	3597.00
393.96	3495.00
394.43	3559.00
394.90	3528.00
395.37	3582.00
395.83	3723.00
396.30	3443.00
396.77	3525.00
397.24	3553.00
397.70	3477.00
398.17	3523.00
398.64	3515.00
399.11	3490.00
399.57	3572.00
400.04	3460.00
400.51	3508.00
400.98	3487.00
401.44	3553.00
401.91	3521.00
402.38	3549.00
402.84	3466.00
403.31	3562.00
403.78	3532.00
404.25	3603.00
404.71	3630.00
405.18	3549.00
405.65	3478.00
406.12	3562.00
406.58	3544.00
407.05	3599.00
407.52	3495.00
407.98	4048.00
408.45	3553.00
408.92	3470.00
409.38	3578.00
409.85	3513.00
410.32	3577.00
410.78	3471.00
411.25	3613.00
411.72	3557.00
412.18	3481.00
412.65	3612.00
413.12	3539.00
413.59	3540.00
414.05	3578.00
414.52	3626.00
414.98	3542.00
415.45	3671.00
415.92	3567.00
416.38	3565.00
416.85	3677.00
417.32	3555.00
417.78	3569.00
418.25	3581.00
418.72	3559.00
419.18	3587.00
419.65	3498.00
420.12	3622.00
420.58	3542.00
421.05	3568.00
421.51	3531.00
421.98	3567.00
422.45	3571.00
422.91	3587.00
423.38	3608.00
423.85	3629.00
424.31	3608.00
424.78	3603.00
425.24	3589.00
425.71	3675.00
426.18	3578.00
426.64	3648.00
427.11	3604.00
427.57	3600.00
428.04	3521.00
428.51	3608.00
428.97	3645.00
429.44	3561.00
429.90	3576.00
430.37	3727.00
430.83	3532.00
431.30	3607.00
431.77	3689.00
432.23	3681.00
432.70	3598.00
433.16	3630.00
433.63	3595.00
434.09	3583.00
434.56	3653.00
435.03	3555.00
435.49	3692.00
435.96	3637.00
436.42	3619.00
436.89	3674.00
437.35	3655.00
437.82	3622.00
438.28	3639.00
438.75	3643.00
439.21	3811.00
439.68	3698.00
440.14	3675.00
440.61	3723.00
441.07	3634.00
441.54	3633.00
442.00	3810.00
442.47	3590.00
442.94	3658.00
443.40	3677.00
443.87	3615.00
444.33	3796.00
444.80	3677.00
445.26	3638.00
445.73	3722.00
446.19	3707.00
446.65	3685.00
447.12	3731.00
447.58	3704.00
448.05	3677.00
448.51	3724.00
448.98	3713.00
449.44	3732.00
449.91	3655.00
450.37	3669.00
450.84	3725.00
451.30	3725.00
451.77	3747.00
452.23	3670.00
452.70	3709.00
453.16	3669.00
453.62	3701.00
454.09	3715.00
454.55	3737.00
455.02	3696.00
455.48	3706.00
455.95	3766.00
456.41	3691.00
456.88	3827.00
457.34	3719.00
457.80	3728.00
458.27	3616.00
458.73	3685.00
459.20	3749.00
459.66	3673.00
460.13	3695.00
460.59	3643.00
461.05	3763.00
461.52	3698.00
461.98	3628.00
462.45	3647.00
462.91	3711.00
463.37	3645.00
463.84	3651.00
464.30	3675.00
464.76	3560.00
465.23	3615.00
465.69	3656.00
466.16	3665.00
466.62	3642.00
467.08	3625.00
467.55	3619.00
468.01	3629.00
468.48	3616.00
468.94	3617.00
469.40	3571.00
469.87	3635.00
470.33	3600.00
470.79	3562.00
471.26	3574.00
471.72	3585.00
472.18	3584.00
472.65	3616.00
473.11	3662.00
473.57	3598.00
474.04	3616.00
474.50	3595.00
474.96	3529.00
475.43	3600.00
475.89	3567.00
476.35	3589.00
476.82	3586.00
477.28	3615.00
477.74	3596.00
478.21	3573.00
478.67	3631.00
479.13	3541.00
479.59	3680.00
480.06	3623.00
480.52	3570.00
480.98	3581.00
481.45	3567.00
481.91	3586.00
482.37	3536.00
482.84	3583.00
483.30	3502.00
483.76	3572.00
484.22	3642.00
484.69	3591.00
485.15	3587.00
485.61	3466.00
486.07	3499.00
486.54	3510.00
487.00	3582.00
487.46	3517.00
487.92	3496.00
488.39	3547.00
488.85	3544.00
489.31	3597.00
489.77	3648.00
490.24	3515.00
490.70	3591.00
491.16	3506.00
491.62	3496.00
492.09	3503.00
492.55	3631.00
493.01	3613.00
493.47	3585.00
493.94	3596.00
494.40	3557.00
494.86	3530.00
495.32	3595.00
495.78	3641.00
496.25	3630.00
496.71	3612.00
497.17	3711.00
497.63	3641.00
498.09	3614.00
498.56	3629.00
499.02	3629.00
499.48	3751.00
499.94	3619.00
500.40	3609.00
500.87	3640.00
501.33	3602.00
501.79	3683.00
502.25	3639.00
502.71	3911.00
503.17	3680.00
503.64	3710.00
504.10	3641.00
504.56	3737.00
505.02	3727.00
505.48	3725.00
505.94	3786.00
506.40	3779.00
506.87	3745.00
507.33	3813.00
507.79	3819.00
508.25	3736.00
508.71	3784.00
509.17	3777.00
509.63	3833.00
510.10	3813.00
510.56	3874.00
511.02	3929.00
511.48	3943.00
511.94	3887.00
512.40	3851.00
512.86	3881.00
513.32	3946.00
513.78	3866.00
514.25	4020.00
514.71	4649.00
515.17	3938.00
515.63	4126.00
516.09	4071.00
516.55	4029.00
517.01	4137.00
517.47	4090.00
517.93	4095.00
518.39	4340.00
518.85	4149.00
519.32	4232.00
519.78	4247.00
520.24	4273.00
520.70	4376.00
521.16	4392.00
521.62	4473.00
522.08	4451.00
522.54	4464.00
523.00	4588.00
523.46	4616.00
523.92	4561.00
524.38	4777.00
524.84	4680.00
525.30	4687.00
525.76	4729.00
526.22	4652.00
526.68	4662.00
527.14	4716.00
527.60	4751.00
528.06	4825.00
528.52	4897.00
528.98	4945.00
529.44	4903.00
529.90	4993.00
530.36	5028.00
530.82	5016.00
531.28	5065.00
531.74	5049.00
532.20	4989.00
532.66	4959.00
533.12	5084.00
533.58	5018.00
534.04	5031.00
534.50	5078.00
534.96	5141.00
535.42	5230.00
535.88	5199.00
536.34	5177.00
536.80	5182.00
537.26	5235.00
537.72	5252.00
538.18	5241.00
538.64	5403.00
539.10	5284.00
539.56	5463.00
540.02	5201.00
540.48	5263.00
540.94	5259.00
541.40	5251.00
541.86	5369.00
542.32	5317.00
542.78	5321.00
543.24	5459.00
543.69	5322.00
544.15	5499.00
544.61	5425.00
545.07	5422.00
545.53	5367.00
545.99	5369.00
546.45	5411.00
546.91	5447.00
547.37	5433.00
547.83	5456.00
548.29	5515.00
548.74	5470.00
549.20	5454.00
549.66	5519.00
550.12	5489.00
550.58	5402.00
551.04	5481.00
551.50	5456.00
551.96	5643.00
552.42	5470.00
552.87	5475.00
553.33	5538.00
553.79	5549.00
554.25	5510.00
554.71	5513.00
555.17	5572.00
555.63	5621.00
556.08	5509.00
556.54	5479.00
557.00	5340.00
557.46	5470.00
557.92	5499.00
558.38	5452.00
558.83	5375.00
559.29	5357.00
559.75	5329.00
560.21	5390.00
560.67	5404.00
561.13	5371.00
561.58	5367.00
562.04	5293.00
562.50	5340.00
562.96	5404.00
563.42	5370.00
563.87	5284.00
564.33	5330.00
564.79	5293.00
565.25	5229.00
565.71	5181.00
566.16	5250.00
566.62	5175.00
567.08	5197.00
567.54	5163.00
568.00	5189.00
568.45	5047.00
568.91	5128.00
569.37	5095.00
569.83	4995.00
570.28	4964.00
570.74	4965.00
571.20	4955.00
571.66	5049.00
572.11	5011.00
572.57	5035.00
573.03	4883.00
573.49	4877.00
573.94	4904.00
574.40	4958.00
574.86	4881.00
575.32	4758.00
575.77	4805.00
576.23	4717.00
576.69	4852.00
577.15	4764.00
577.60	4739.00
578.06	4682.00
578.52	4761.00
578.97	4768.00
579.43	4693.00
579.89	4662.00
580.34	4714.00
580.80	4669.00
581.26	4691.00
581.72	4719.00
582.17	4704.00
582.63	4681.00
583.09	4651.00
583.54	4713.00
584.00	4684.00
584.46	4636.00
584.91	4625.00
585.37	4713.00
585.83	4563.00
586.28	4566.00
586.74	4537.00
587.20	4587.00
587.65	4595.00
588.11	4506.00
588.57	4516.00
589.02	4372.00
589.48	4389.00
589.94	4439.00
590.39	4535.00
590.85	4449.00
591.30	4542.00
591.76	4504.00
592.22	4467.00
592.67	4472.00
593.13	4486.00
593.59	4492.00
594.04	4489.00
594.50	4468.00
594.95	4492.00
595.41	4463.00
595.87	4421.00
596.32	4509.00
596.78	4455.00
597.23	4487.00
597.69	4459.00
598.15	4451.00
598.60	4441.00
599.06	4470.00
599.51	4385.00
599.97	4465.00
600.43	4467.00
600.88	4433.00
601.34	4443.00
601.79	4361.00
602.25	4568.00
602.70	4411.00
603.16	4399.00
603.61	4358.00
604.07	4346.00
604.53	4361.00
604.98	4419.00
605.44	4380.00
605.89	4378.00
606.35	4283.00
606.80	4383.00
607.26	4343.00
607.71	4321.00
608.17	4361.00
608.62	4338.00
609.08	4439.00
609.53	4357.00
609.99	4331.00
610.44	4254.00
610.90	4278.00
611.35	4197.00
611.81	4334.00
612.26	4291.00
612.72	4243.00
613.17	4340.00
613.63	4123.00
614.08	4150.00
614.54	4179.00
614.99	4139.00
615.45	4155.00
615.90	4161.00
616.36	4057.00
616.81	4152.00
617.27	4146.00
617.72	4147.00
618.18	4162.00
618.63	4086.00
619.09	4095.00
619.54	4155.00
619.99	4116.00
620.45	4181.00
620.90	4213.00
621.36	4088.00
621.81	4154.00
622.27	4188.00
622.72	4118.00
623.18	4060.00
623.63	4039.00
624.08	4105.00
624.54	4046.00
624.99	4051.00
625.45	4043.00
625.90	4031.00
626.35	4057.00
626.81	4088.00
627.26	4031.00
627.72	4037.00
628.17	4069.00
628.62	3982.00
629.08	4062.00
629.53	4074.00
629.99	4017.00
630.44	4047.00
630.89	4032.00
631.35	4055.00
631.80	4039.00
632.26	4063.00
632.71	4067.00
633.16	4017.00
633.62	4037.00
634.07	4011.00
634.52	4038.00
634.98	4065.00
635.43	3968.00
635.88	3973.00
636.34	4022.00
636.79	4053.00
637.24	4015.00
637.70	4047.00
638.15	4015.00
638.60	3973.00
639.06	3998.00
639.51	3928.00
639.96	3912.00
640.42	3948.00
640.87	3964.00
641.32	3903.00
641.78	3930.00
642.23	3878.00
642.68	3841.00
643.14	3845.00
643.59	3889.00
644.04	3869.00
644.49	3859.00
644.95	3854.00
645.40	3784.00
645.85	3861.00
646.31	3813.00
646.76	3841.00
647.21	3843.00
647.66	3793.00
648.12	3794.00
648.57	3770.00
649.02	3832.00
649.47	3754.00
649.93	3959.00
650.38	3712.00
650.83	3704.00
651.28	3691.00
651.74	3737.00
652.19	3740.00
652.64	3766.00
653.09	3721.00
653.55	3713.00
654.00	3745.00
654.45	3735.00
654.90	3700.00
655.35	3643.00
655.81	3683.00
656.26	3573.00
656.71	3622.00
657.16	3666.00
657.62	3712.00
658.07	3648.00
658.52	3677.00
658.97	3607.00
659.42	3782.00
659.88	3624.00
660.33	3747.00
660.78	3657.00
661.23	3593.00
661.68	3631.00
662.13	3578.00
662.59	3551.00
663.04	3632.00
663.49	3567.00
663.94	3577.00
664.39	3574.00
664.84	3538.00
665.30	3576.00
665.75	3499.00
666.20	3563.00
666.65	3528.00
667.10	3664.00
667.55	3618.00
668.00	3493.00
668.46	3568.00
668.91	3528.00
669.36	3661.00
669.81	3462.00
670.26	3478.00
670.71	3590.00
671.16	3535.00
671.61	3576.00
672.06	3604.00
672.52	3488.00
672.97	3490.00
673.42	3576.00
673.87	3677.00
674.32	3521.00
674.77	3545.00
675.22	3424.00
675.67	3454.00
676.12	3516.00
676.57	3503.00
677.02	3510.00
677.47	3499.00
677.93	3629.00
678.38	3475.00
678.83	3469.00
679.28	3494.00
679.73	3483.00
680.18	3503.00
680.63	3501.00
681.08	3472.00
681.53	3466.00
681.98	3525.00
682.43	3548.00
682.88	3543.00
683.33	3576.00
683.78	3550.00
684.23	3613.00
684.68	3567.00
685.13	3579.00
685.58	3577.00
686.03	3534.00
686.48	3503.00
686.93	3501.00
687.38	3476.00
687.83	3560.00
688.28	3603.00
688.73	3719.00
689.18	3651.00
689.63	3632.00
690.08	3687.00
690.53	3691.00
690.98	3707.00
691.43	3767.00
691.88	3761.00
692.33	3886.00
692.78	3917.00
693.23	4003.00
693.68	4026.00
694.13	4015.00
694.58	4098.00
695.03	4417.00
695.48	4234.00
695.93	4346.00
696.38	4433.00
696.83	4506.00
697.28	4443.00
697.72	4566.00
698.17	4597.00
698.62	4736.00
699.07	4749.00
699.52	4754.00
699.97	4836.00
700.42	4955.00
700.87	4999.00
701.32	5197.00
701.77	5067.00
702.22	5267.00
702.67	5247.00
703.11	5346.00
703.56	5483.00
704.01	5546.00
704.46	5659.00
704.91	5749.00
705.36	5905.00
705.81	5995.00
706.26	5875.00
706.70	6049.00
707.15	6086.00
707.60	6205.00
708.05	6276.00
708.50	6386.00
708.95	6451.00
709.40	6517.00
709.84	6582.00
710.29	6599.00
710.74	6674.00
711.19	6750.00
711.64	6863.00
712.09	6934.00
712.53	6944.00
712.98	7133.00
713.43	7095.00
713.88	7232.00
714.33	7332.00
714.78	7300.00
715.22	7202.00
715.67	7361.00
716.12	7264.00
716.57	7141.00
717.02	6930.00
717.46	6843.00
717.91	6918.00
718.36	6855.00
718.81	6738.00
719.26	6722.00
719.70	6874.00
720.15	6941.00
720.60	7171.00
721.05	7562.00
721.49	7803.00
721.94	8019.00
722.39	7943.00
722.84	7901.00
723.28	7631.00
723.73	7602.00
724.18	7572.00
724.63	7765.00
725.07	7729.00
725.52	7901.00
725.97	8021.00
726.42	8063.00
726.86	8223.00
727.31	8062.00
727.76	8176.00
728.21	8368.00
728.65	8283.00
729.10	8292.00
729.55	8439.00
729.99	8616.00
730.44	8624.00
730.89	8711.00
731.33	8859.00
731.78	9049.00
732.23	9207.00
732.68	9404.00
733.12	9566.00
733.57	9684.00
734.02	9809.00
734.46	9923.00
734.91	9821.00
735.36	9895.00
735.80	10115.00
736.25	10032.00
736.70	10103.00
737.14	10228.00
737.59	10323.00
738.04	10315.00
738.48	10193.00
738.93	10221.00
739.37	10403.00
739.82	10597.00
740.27	10629.00
740.71	10527.00
741.16	10625.00
741.61	10650.00
742.05	10584.00
742.50	10814.00
742.94	10833.00
743.39	10888.00
743.84	10901.00
744.28	10920.00
744.73	10935.00
745.18	10950.00
745.62	10959.00
746.07	11199.00
746.51	10913.00
746.96	11093.00
747.40	11001.00
747.85	11027.00
748.30	11030.00
748.74	10930.00
749.19	10924.00
749.63	11182.00
750.08	11129.00
750.52	10985.00
750.97	11041.00
751.42	11010.00
751.86	11027.00
752.31	11132.00
752.75	11153.00
753.20	11015.00
753.64	10892.00
754.09	10952.00
754.53	10963.00
754.98	11019.00
755.42	11060.00
755.87	11075.00
756.31	11054.00
756.76	10927.00
757.20	10884.00
757.65	10936.00
758.09	10651.00
758.54	10345.00
758.98	9563.00
759.43	7950.00
759.87	6368.00
760.32	5396.00
760.76	5399.00
761.21	6101.00
761.65	6871.00
762.10	7096.00
762.54	6802.00
762.99	6607.00
763.43	6815.00
763.88	7050.00
764.32	7459.00
764.77	7851.00
765.21	8355.00
765.66	8647.00
766.10	8997.00
766.54	9448.00
766.99	9679.00
767.43	9993.00
767.88	10223.00
768.32	10392.00
768.77	10491.00
769.21	10649.00
769.66	10735.00
770.10	10829.00
770.54	10895.00
770.99	10799.00
771.43	10856.00
771.88	10958.00
772.32	10905.00
772.76	10832.00
773.21	10756.00
773.65	10888.00
774.10	10697.00
774.54	10690.00
774.98	10789.00
775.43	10862.00
775.87	10969.00
776.31	10921.00
776.76	10949.00
777.20	10875.00
777.65	10859.00
778.09	10825.00
778.53	10708.00
778.98	10791.00
779.42	10862.00
779.86	10798.00
780.31	10701.00
780.75	10846.00
781.19	10741.00
781.64	10787.00
782.08	10912.00
782.52	10665.00
782.97	10681.00
783.41	10663.00
783.85	10679.00
784.30	10522.00
784.74	10460.00
785.18	10410.00
785.63	10524.00
786.07	10470.00
786.51	10578.00
786.95	10632.00
787.40	10384.00
787.84	10387.00
788.28	10414.00
788.73	10355.00
789.17	10249.00
789.61	10163.00
790.05	10165.00
790.50	9936.00
790.94	10016.00
791.38	10073.00
791.82	10252.00
792.27	10092.00
792.71	10107.00
793.15	10272.00
793.59	10192.00
794.04	10066.00
794.48	10070.00
794.92	9968.00
795.36	9797.00
795.81	9848.00
796.25	9769.00
796.69	9827.00
797.13	9865.00
797.57	9913.00
798.02	10123.00
798.46	10005.00
798.90	9994.00
799.34	9853.00
799.79	9903.00
800.23	9753.00
800.67	9575.00
801.11	9727.00
801.55	9652.00
801.99	9579.00
802.44	9722.00
802.88	9702.00
803.32	9784.00
803.76	9684.00
804.20	9741.00
804.64	9794.00
805.09	9837.00
805.53	9892.00
805.97	9776.00
806.41	9590.00
806.85	9577.00
807.29	9547.00
807.74	9512.00
808.18	9362.00
808.62	9459.00
809.06	9440.00
809.50	9491.00
809.94	9382.00
810.38	9507.00
810.82	9507.00
811.27	9477.00
811.71	9234.00
812.15	9089.00
812.59	8995.00
813.03	8919.00
813.47	8607.00
813.91	8358.00
814.35	8336.00
814.79	8217.00
815.23	8198.00
815.67	8063.00
816.12	8118.00
816.56	8102.00
817.00	8201.00
817.44	8173.00
817.88	8265.00
818.32	8083.00
818.76	8089.00
819.20	8161.00
819.64	8240.00
820.08	8237.00
820.52	8423.00
820.96	8487.00
821.40	8411.00
821.84	8330.00
822.28	7833.00
822.72	7932.00
823.16	7818.00
823.60	8110.00
824.04	8501.00
824.48	8712.00
824.92	8645.00
825.36	8689.00
825.80	8557.00
826.24	8497.00
826.68	8354.00
827.12	8327.00
827.56	8362.00
828.00	8290.00
828.44	8328.00
828.88	8477.00
829.32	8457.00
829.76	8515.00
830.20	8703.00
830.64	8505.00
831.08	8659.00
831.52	8377.00
831.96	8285.00
832.40	8191.00
832.84	8324.00
833.28	8243.00
833.72	8587.00
834.16	8604.00
834.60	8813.00
835.04	8897.00
835.48	8964.00
835.91	8877.00
836.35	8849.00
836.79	8766.00
837.23	8808.00
837.67	8679.00
838.11	8652.00
838.55	8609.00
838.99	8682.00
839.43	8738.00
839.87	8823.00
840.30	8855.00
840.74	9001.00
841.18	8945.00
841.62	8995.00
842.06	8999.00
842.50	9103.00
842.94	8979.00
843.38	8940.00
843.81	8665.00
844.25	8718.00
844.69	8594.00
845.13	8634.00
845.57	8633.00
846.01	8666.00
846.45	8688.00
846.88	8780.00
847.32	8886.00
847.76	8920.00
848.20	8919.00
848.64	8938.00
849.08	8893.00
849.51	8805.00
849.95	8627.00
850.39	8598.00
850.83	8797.00
851.27	8613.00
851.70	8470.00
852.14	8585.00
852.58	8421.00
853.02	8121.00
853.46	8010.00
853.89	8006.00
854.33	7983.00
854.77	8182.00
855.21	8604.00
855.65	8862.00
856.08	8995.00
856.52	8927.00
856.96	8876.00
857.40	8721.00
857.83	8586.00
858.27	8563.00
858.71	8355.00
859.15	8345.00
859.58	8407.00
860.02	8509.00
860.46	8559.00
860.89	8738.00
861.33	8758.00
861.77	8870.00
862.21	8895.00
862.64	8777.00
863.08	8926.00
863.52	8781.00
863.95	8633.00
864.39	8586.00
864.83	8285.00
865.27	8007.00
865.70	8072.00
866.14	7929.00
866.58	7988.00
867.01	8188.00
867.45	8460.00
867.89	8557.00
868.32	8650.00
868.76	8755.00
869.20	8841.00
869.63	8817.00
870.07	8744.00
870.51	8515.00
870.94	8405.00
871.38	8329.00
871.82	8152.00
872.25	8198.00
872.69	8115.00
873.13	8100.00
873.56	8242.00
874.00	8363.00
874.43	8411.00
874.87	8442.00
875.31	8650.00
875.74	8500.00
876.18	8540.00
876.61	8584.00
877.05	8483.00
877.49	8425.00
877.92	8330.00
878.36	8304.00
878.79	8160.00
879.23	8101.00
879.67	7982.00
880.10	7965.00
880.54	7954.00
880.97	8045.00
881.41	8267.00
881.84	8339.00
882.28	8421.00
882.72	8429.00
883.15	8566.00
883.59	8531.00
884.02	8599.00
884.46	8527.00
884.89	8414.00
885.33	8375.00
885.76	8093.00
886.20	8057.00
886.63	7965.00
887.07	7773.00
887.50	7914.00
887.94	7951.00
888.37	7945.00
888.81	8198.00
889.24	8011.00
889.68	8215.00
890.11	8202.00
890.55	8375.00
890.98	8420.00
891.42	8357.00
891.85	8264.00
892.29	8184.00
892.72	8050.00
893.16	7859.00
893.59	7783.00
894.03	7659.00
894.46	7390.00
894.90	7297.00
895.33	7056.00
895.77	7050.00
896.20	7106.00
896.63	6957.00
897.07	6929.00
897.50	6986.00
897.94	7008.00
898.37	7259.00
898.81	6860.00
899.24	6925.00
899.68	7105.00
900.11	7039.00
900.54	7005.00
900.98	6838.00
901.41	6925.00
901.85	6963.00
902.28	6917.00
902.71	6970.00
903.15	7165.00
903.58	7176.00
904.02	7328.00
904.45	7219.00
904.88	7234.00
905.32	7183.00
905.75	7185.00
906.18	7007.00
906.62	7062.00
907.05	6922.00
907.48	7005.00
907.92	6845.00
908.35	6949.00
908.79	6882.00
909.22	6722.00
909.65	6730.00
910.09	6664.00
910.52	6813.00
910.95	6615.00
911.38	6699.00
911.82	6521.00
912.25	6672.00
912.68	6737.00
913.12	6751.00
913.55	6661.00
913.98	6779.00
914.42	6991.00
914.85	6975.00
915.28	6791.00
915.72	6777.00
916.15	6700.00
916.58	6811.00
917.01	6565.00
917.45	6473.00
917.88	6555.00
918.31	6728.00
918.74	6823.00
919.18	6915.00
919.61	6892.00
920.04	7039.00
920.47	7095.00
920.91	7105.00
921.34	7083.00
921.77	7065.00
922.20	7108.00
922.64	7130.00
923.07	7212.00
923.50	7058.00
923.93	6873.00
924.37	6906.00
924.80	6746.00
925.23	6879.00
925.66	6653.00
926.09	6489.00
926.53	6343.00
926.96	6205.00
927.39	6162.00
927.82	5861.00
928.25	5684.00
928.69	5738.00
929.12	5624.00
929.55	5452.00
929.98	5363.00
930.41	5165.00
930.84	5059.00
931.28	4873.00
931.71	4776.00
932.14	4587.00
932.57	4554.00
933.00	4364.00
933.43	4393.00
933.86	4275.00
934.30	4165.00
934.73	4359.00
935.16	4217.00
935.59	4117.00
936.02	4167.00
936.45	4209.00
936.88	4140.00
937.31	4369.00
937.75	4359.00
938.18	4496.00
938.61	4624.00
939.04	4626.00
939.47	4636.00
939.90	4545.00
940.33	4582.00
940.76	4271.00
941.19	4281.00
941.62	4217.00
942.05	4219.00
942.48	4110.00
942.91	4046.00
943.35	4132.00
943.78	4042.00
944.21	4067.00
944.64	4240.00
945.07	4181.00
945.50	4132.00
945.93	4217.00
946.36	4319.00
946.79	4262.00
947.22	4391.00
947.65	4389.00
948.08	4261.00
948.51	4318.00
948.94	4378.00
949.37	4494.00
949.80	4325.00
950.23	4329.00
950.66	4373.00
951.09	4422.00
951.52	4238.00
951.95	4330.00
952.38	4363.00
952.81	4524.00
953.24	4494.00
953.67	4581.00
954.10	4503.00
954.53	4639.00
954.96	4581.00
955.39	4715.00
955.82	4741.00
956.25	4708.00
956.68	4843.00
957.11	4725.00
957.53	4671.00
957.96	4639.00
958.39	4653.00
958.82	4533.00
959.25	4593.00
959.68	4643.00
960.11	4733.00
960.54	4770.00
960.97	4943.00
961.40	4981.00
961.83	4965.00
962.26	4958.00
962.68	5248.00
963.11	5182.00
963.54	5207.00
963.97	5237.00
964.40	5143.00
964.83	5359.00
965.26	5296.00
965.69	5229.00
966.11	5261.00
966.54	5315.00
966.97	5382.00
967.40	5491.00
967.83	5610.00
968.26	5521.00
968.69	5395.00
969.11	5522.00
969.54	5433.00
969.97	5493.00
970.40	5521.00
970.83	5552.00
971.26	5572.00
971.68	5496.00
972.11	5513.00
972.54	5602.00
972.97	5617.00
973.40	5578.00
973.82	5537.00
974.25	5542.00
974.68	5485.00
975.11	5437.00
975.54	5331.00
975.96	5408.00
976.39	5423.00
976.82	5474.00
977.25	5361.00
977.67	5338.00
978.10	5372.00
978.53	5413.00
978.96	5568.00
979.38	5567.00
979.81	5538.00
980.24	5755.00
980.67	5763.00
981.09	5837.00
981.52	5801.00
981.95	5814.00
982.38	5763.00
982.80	5833.00
983.23	5900.00
983.66	5898.00
984.08	5837.00
984.51	5762.00
984.94	5801.00
985.37	5815.00
985.79	5748.00
986.22	5596.00
986.65	5676.00
987.07	5621.00
987.50	5591.00
987.93	5604.00
988.35	5551.00
988.78	5638.00
989.21	5612.00
989.63	5745.00
990.06	5775.00
990.49	5779.00
990.91	5874.00
991.34	5864.00
991.77	5908.00
992.19	5863.00
992.62	5867.00
993.05	5841.00
993.47	5825.00
993.90	5802.00
994.32	5707.00
994.75	5781.00
995.18	5648.00
995.60	5499.00
996.03	5537.00
996.45	5579.00
996.88	5549.00
997.31	5523.00
997.73	5520.00
998.16	5491.00
998.58	5555.00
999.01	5539.00
999.44	5572.00
999.86	5761.00
1000.29	5638.00
1000.71	5632.00
1001.14	5683.00
1001.56	5668.00
1001.99	5681.00
1002.41	5620.00
1002.84	5553.00
1003.27	5531.00
1003.69	5474.00
1004.12	5345.00
1004.54	5409.00
1004.97	5291.00
1005.39	5214.00
1005.82	5285.00
1006.24	5249.00
1006.67	5133.00
1007.09	5137.00
1007.52	5224.00
1007.94	5217.00
1008.37	5433.00
1008.79	5340.00
1009.22	5282.00
1009.64	5354.00
1010.07	5314.00
1010.49	5349.00
1010.92	5342.00
1011.34	5342.00
1011.77	5324.00
1012.19	5328.00
1012.62	5263.00
1013.04	5250.00
1013.46	5263.00
1013.89	5062.00
1014.31	5179.00
1014.74	5038.00
1015.16	5124.00
1015.59	4989.00
1016.01	5033.00
1016.44	5014.00
1016.86	5791.00
1017.28	5026.00
1017.71	5059.00
1018.13	5179.00
1018.56	5168.00
1018.98	5164.00
1019.40	5143.00
1019.83	5133.00
1020.25	5247.00
1020.68	5173.00
1021.10	5306.00
1021.52	5237.00
1021.95	5449.00
1022.37	5307.00
1022.79	5245.00
1023.22	5205.00
1023.64	5169.00
1024.07	5213.00
1024.49	5153.00
1024.91	5036.00
1025.34	4994.00
1025.76	5152.00
1026.18	5056.00
1026.61	5119.00
1027.03	5010.00
1027.45	4992.00
1027.88	5009.00
1028.30	5167.00
1028.72	5039.00
1029.15	5022.00
1029.57	5090.00
1029.99	5171.00
1030.41	5074.00
1030.84	5098.00
1031.26	5139.00
1031.68	5012.00
1032.11	5064.00
1032.53	4957.00
1032.95	4944.00
1033.37	5005.00
1033.80	4927.00
1034.22	4862.00
1034.64	4931.00
1035.06	4799.00
1035.49	4798.00
1035.91	4765.00
1036.33	4645.00
1036.75	4801.00
1037.18	4713.00
1037.60	4745.00
1038.02	4805.00
1038.44	4816.00
1038.87	4689.00
1039.29	4720.00
1039.71	4764.00
1040.13	4770.00
1040.55	4809.00
1040.98	4813.00
1041.40	4768.00
1041.82	4760.00
1042.24	4684.00
1042.66	4701.00
1043.09	4612.00
1043.51	4624.00
1043.93	4583.00
1044.35	4511.00
1044.77	4516.00
1045.20	4534.00
1045.62	4432.00
1046.04	4515.00
1046.46	4502.00
1046.88	4347.00
1047.30	4410.00
1047.72	4434.00
1048.15	4435.00
1048.57	4368.00
1048.99	4393.00
1049.41	4368.00
1049.83	4423.00
1050.25	4478.00
1050.67	4415.00
1051.09	4354.00
1051.52	4410.00
1051.94	4290.00
1052.36	4328.00
1052.78	4306.00
1053.20	4301.00
1053.62	4309.00
1054.04	4343.00
1054.46	4294.00
1054.88	4399.00
1055.30	4329.00
1055.72	4261.00
1056.14	4245.00
1056.57	4371.00
1056.99	4118.00
1057.41	4218.00
1057.83	4185.00
1058.25	4142.00
1058.67	4093.00
1059.09	4043.00
1059.51	4140.00
1059.93	4090.00
1060.35	4099.00
1060.77	4074.00
1061.19	4121.00
1061.61	4052.00
1062.03	4028.00
1062.45	3984.00
1062.87	4115.00
1063.29	4055.00
1063.71	4031.00
1064.13	3970.00
1064.55	3993.00
1064.97	4072.00
1065.39	4004.00
1065.81	4003.00
1066.23	3975.00
1066.65	3982.00
1067.07	4062.00
1067.49	3951.00
1067.91	3903.00
1068.33	3863.00
1068.75	3955.00
1069.17	3959.00
1069.59	3920.00
1070.00	3923.00
1070.42	3899.00
1070.84	3849.00
1071.26	3860.00
1071.68	3818.00
1072.10	3883.00
1072.52	3837.00
1072.94	3773.00
1073.36	3777.00
1073.78	3811.00
1074.20	3827.00
1074.62	3795.00
1075.03	3798.00
1075.45	3803.00
1075.87	3885.00
1076.29	3782.00
1076.71	3864.00
1077.13	3855.00
1077.55	3749.00
1077.97	3810.00
1078.38	3739.00
1078.80	3750.00
1079.22	3784.00
1079.64	3782.00
1080.06	3752.00
1080.48	3742.00
1080.89	3690.00
1081.31	3693.00
1081.73	3677.00
1082.15	3696.00
1082.57	3709.00
1082.99	3671.00
1083.40	3679.00
1083.82	3707.00
1084.24	3637.00
1084.66	3625.00
1085.08	3633.00
1085.49	3626.00
1085.91	3677.00
1086.33	4970.00
1086.75	3644.00
1087.17	3624.00
1087.58	3605.00
1088.00	3624.00
1088.42	3667.00
1088.84	3575.00
1089.25	3562.00
1089.67	3606.00
1090.09	3588.00
1090.51	3566.00
1090.92	3659.00
1091.34	3546.00
1091.76	3572.00
1092.18	3513.00
1092.59	3564.00
1093.01	3509.00
1093.43	3523.00
1093.84	3490.00
1094.26	3504.00
1094.68	3515.00
1095.10	3483.00
1095.51	3496.00
1095.93	3471.00
1096.35	3513.00
1096.76	3520.00
1097.18	3525.00
1097.60	3452.00
1098.01	3520.00
1098.43	3452.00
1098.85	3429.00
1099.26	3419.00
1099.68	3463.00
1100.10	3417.00
1100.51	3391.00
1100.93	3442.00
1101.35	3436.00
1101.76	3441.00
1102.18	3905.00
1102.60	3458.00
1103.01	3333.00
1103.43	3406.00
1103.84	3439.00
1104.26	3351.00
1104.68	3408.00
1105.09	3327.00
1105.51	3336.00
1105.92	3424.00
1106.34	3328.00
1106.76	3365.00
1107.17	3397.00
1107.59	3371.00
1108.00	3289.00
1108.42	3356.00
1108.83	3292.00
1109.25	3337.00
1109.67	3305.00
1110.08	3283.00
1110.50	3272.00
1110.91	3301.00
1111.33	3225.00
1111.74	3247.00
1112.16	3319.00
1112.57	3285.00
1112.99	3278.00
1113.41	3269.00
1113.82	3260.00
1114.24	3258.00
1114.65	3236.00
1115.07	3177.00
1115.48	3091.00
1115.90	2184.00
1116.31	2204.00
1116.73	2212.00
1117.14	2214.00
>>>>>End Processed Spectral Data<<<<<
