SpectraSuite Data File
++++++++++++++++++++++++++++++++++++
Date: Tue May 29 13:19:33 EEST 2018
User: CanSEE
Dark Spectrum Present: No
Reference Spectrum Present: No
Number of Sampled Component Spectra: 1
Spectrometers: MAYP11278
Integration Time (usec): 220000 (MAYP11278)
Spectra Averaged: 1 (MAYP11278)
Boxcar Smoothing: 0 (MAYP11278)
Correct for Electrical Dark: No (MAYP11278)
Strobe/Lamp Enabled: No (MAYP11278)
Correct for Detector Non-linearity: No (MAYP11278)
Correct for Stray Light: No (MAYP11278)
Number of Pixels in Processed Spectrum: 2068
>>>>>Begin Processed Spectral Data<<<<<
187.82	2350.00
188.30	2244.00
188.78	2216.00
189.26	2219.00
189.73	3468.00
190.21	3617.00
190.69	3763.00
191.17	3793.00
191.64	3864.00
192.12	3742.00
192.60	3816.00
193.07	3690.00
193.55	3806.00
194.03	3764.00
194.51	3828.00
194.98	3758.00
195.46	3858.00
195.94	3798.00
196.42	3826.00
196.89	3914.00
197.37	3791.00
197.85	3735.00
198.32	3780.00
198.80	3776.00
199.28	3820.00
199.76	3848.00
200.23	3779.00
200.71	3756.00
201.19	3854.00
201.66	3789.00
202.14	3824.00
202.62	3768.00
203.09	3791.00
203.57	3743.00
204.05	3820.00
204.53	3898.00
205.00	3759.00
205.48	3786.00
205.96	3883.00
206.43	3789.00
206.91	3811.00
207.39	3950.00
207.86	3808.00
208.34	3776.00
208.82	3773.00
209.29	3821.00
209.77	3815.00
210.25	3808.00
210.72	3801.00
211.20	3846.00
211.68	3800.00
212.15	3786.00
212.63	3874.00
213.11	3838.00
213.58	3765.00
214.06	3884.00
214.53	3828.00
215.01	3830.00
215.49	3809.00
215.96	3821.00
216.44	3837.00
216.92	3789.00
217.39	3739.00
217.87	3845.00
218.35	3858.00
218.82	3718.00
219.30	3748.00
219.77	3737.00
220.25	3781.00
220.73	3950.00
221.20	3766.00
221.68	3792.00
222.15	3779.00
222.63	3853.00
223.11	3787.00
223.58	3838.00
224.06	3771.00
224.53	3771.00
225.01	3759.00
225.49	3819.00
225.96	3747.00
226.44	3824.00
226.91	3828.00
227.39	3745.00
227.87	3838.00
228.34	3826.00
228.82	3848.00
229.29	3795.00
229.77	3793.00
230.24	3762.00
230.72	3818.00
231.20	3861.00
231.67	3787.00
232.15	3788.00
232.62	3753.00
233.10	3812.00
233.57	3778.00
234.05	3967.00
234.53	3833.00
235.00	3773.00
235.48	3795.00
235.95	3828.00
236.43	3841.00
236.90	3878.00
237.38	3761.00
237.85	3794.00
238.33	3806.00
238.80	3781.00
239.28	3814.00
239.75	3724.00
240.23	3823.00
240.71	3864.00
241.18	3782.00
241.66	3798.00
242.13	3852.00
242.61	3889.00
243.08	3750.00
243.56	3802.00
244.03	3814.00
244.51	3883.00
244.98	3793.00
245.46	3854.00
245.93	5860.00
246.41	3732.00
246.88	3822.00
247.36	3806.00
247.83	3799.00
248.31	3862.00
248.78	3748.00
249.26	3811.00
249.73	3823.00
250.21	3859.00
250.68	3854.00
251.16	3825.00
251.63	3915.00
252.10	3844.00
252.58	3834.00
253.05	3867.00
253.53	3836.00
254.00	3811.00
254.48	3843.00
254.95	3855.00
255.43	3908.00
255.90	3787.00
256.38	3840.00
256.85	3859.00
257.33	3836.00
257.80	3976.00
258.27	3881.00
258.75	3778.00
259.22	3818.00
259.70	3864.00
260.17	3888.00
260.65	3827.00
261.12	3798.00
261.59	3918.00
262.07	3815.00
262.54	3846.00
263.02	3857.00
263.49	3739.00
263.97	3830.00
264.44	3900.00
264.91	3829.00
265.39	3827.00
265.86	3886.00
266.34	3890.00
266.81	3837.00
267.28	3797.00
267.76	3844.00
268.23	3846.00
268.71	3717.00
269.18	3788.00
269.65	3779.00
270.13	3866.00
270.60	3894.00
271.08	3843.00
271.55	3832.00
272.02	3805.00
272.50	3794.00
272.97	3748.00
273.44	3838.00
273.92	3973.00
274.39	3840.00
274.87	3837.00
275.34	3762.00
275.81	3801.00
276.29	3837.00
276.76	3860.00
277.23	3688.00
277.71	3723.00
278.18	3720.00
278.65	3886.00
279.13	3733.00
279.60	3777.00
280.07	4096.00
280.55	4062.00
281.02	4090.00
281.50	3900.00
281.97	3980.00
282.44	3896.00
282.91	3811.00
283.39	3871.00
283.86	3799.00
284.33	3793.00
284.81	3901.00
285.28	3844.00
285.75	3892.00
286.23	3856.00
286.70	3834.00
287.17	3844.00
287.65	3954.00
288.12	3851.00
288.59	3837.00
289.07	3760.00
289.54	3928.00
290.01	3818.00
290.48	3873.00
290.96	3798.00
291.43	3884.00
291.90	3973.00
292.38	3813.00
292.85	3870.00
293.32	3824.00
293.79	3871.00
294.27	3857.00
294.74	3801.00
295.21	3900.00
295.69	3886.00
296.16	3924.00
296.63	3956.00
297.10	3860.00
297.58	3904.00
298.05	3932.00
298.52	3843.00
298.99	3942.00
299.47	3846.00
299.94	3891.00
300.41	3826.00
300.88	3892.00
301.36	3867.00
301.83	3928.00
302.30	3826.00
302.77	3924.00
303.25	3869.00
303.72	3791.00
304.19	3803.00
304.66	3816.00
305.13	3846.00
305.61	3899.00
306.08	3844.00
306.55	3874.00
307.02	3810.00
307.49	3859.00
307.97	3844.00
308.44	3823.00
308.91	3890.00
309.38	3891.00
309.86	3857.00
310.33	3844.00
310.80	3841.00
311.27	3863.00
311.74	3896.00
312.21	3876.00
312.69	3912.00
313.16	3809.00
313.63	3811.00
314.10	3871.00
314.57	3872.00
315.05	3841.00
315.52	3907.00
315.99	3864.00
316.46	3850.00
316.93	3896.00
317.40	3887.00
317.88	4022.00
318.35	3872.00
318.82	3859.00
319.29	3754.00
319.76	3858.00
320.23	3966.00
320.70	3900.00
321.18	3853.00
321.65	3762.00
322.12	3801.00
322.59	3952.00
323.06	3888.00
323.53	4019.00
324.00	3793.00
324.48	3882.00
324.95	3863.00
325.42	3806.00
325.89	3853.00
326.36	3874.00
326.83	3912.00
327.30	3878.00
327.77	3895.00
328.24	3928.00
328.72	3844.00
329.19	3844.00
329.66	3852.00
330.13	3881.00
330.60	3930.00
331.07	3880.00
331.54	3942.00
332.01	3858.00
332.48	3962.00
332.95	3938.00
333.43	3912.00
333.90	3924.00
334.37	3914.00
334.84	3908.00
335.31	4068.00
335.78	3848.00
336.25	3862.00
336.72	3876.00
337.19	3894.00
337.66	3817.00
338.13	3826.00
338.60	3890.00
339.07	3896.00
339.54	3806.00
340.01	3784.00
340.49	3822.00
340.96	3864.00
341.43	3908.00
341.90	3776.00
342.37	3803.00
342.84	3889.00
343.31	3794.00
343.78	3790.00
344.25	3816.00
344.72	3839.00
345.19	3839.00
345.66	3873.00
346.13	3798.00
346.60	3773.00
347.07	3881.00
347.54	3803.00
348.01	3884.00
348.48	3846.00
348.95	3751.00
349.42	3856.00
349.89	3864.00
350.36	3855.00
350.83	3808.00
351.30	3822.00
351.77	3952.00
352.24	3816.00
352.71	3796.00
353.18	3834.00
353.65	3894.00
354.12	3811.00
354.59	3857.00
355.06	3810.00
355.53	3938.00
356.00	3798.00
356.47	3912.00
356.94	3800.00
357.41	3932.00
357.88	3820.00
358.35	3761.00
358.82	3790.00
359.28	3795.00
359.75	3858.00
360.22	3886.00
360.69	3948.00
361.16	3830.00
361.63	3818.00
362.10	3834.00
362.57	3808.00
363.04	3802.00
363.51	3946.00
363.98	3860.00
364.45	3822.00
364.92	3827.00
365.39	3801.00
365.86	3785.00
366.32	3843.00
366.79	3836.00
367.26	4672.00
367.73	4225.00
368.20	3806.00
368.67	3907.00
369.14	3764.00
369.61	3886.00
370.08	3838.00
370.55	3855.00
371.02	4698.00
371.48	3839.00
371.95	3843.00
372.42	3775.00
372.89	3851.00
373.36	3875.00
373.83	3787.00
374.30	3810.00
374.77	3848.00
375.23	3803.00
375.70	3975.00
376.17	3830.00
376.64	3860.00
377.11	3835.00
377.58	3920.00
378.05	3885.00
378.51	3883.00
378.98	3890.00
379.45	3832.00
379.92	3849.00
380.39	4006.00
380.86	3857.00
381.33	3924.00
381.79	3930.00
382.26	3799.00
382.73	3886.00
383.20	3827.00
383.67	3919.00
384.14	3920.00
384.60	4146.00
385.07	3862.00
385.54	3857.00
386.01	3881.00
386.48	4006.00
386.94	3830.00
387.41	3811.00
387.88	3993.00
388.35	3892.00
388.82	3946.00
389.28	3889.00
389.75	3905.00
390.22	3887.00
390.69	3906.00
391.16	3899.00
391.62	3918.00
392.09	3912.00
392.56	3870.00
393.03	3912.00
393.50	3999.00
393.96	3897.00
394.43	3942.00
394.90	3867.00
395.37	3974.00
395.83	4194.00
396.30	3882.00
396.77	3977.00
397.24	4004.00
397.70	3938.00
398.17	3993.00
398.64	3964.00
399.11	3970.00
399.57	4055.00
400.04	4006.00
400.51	4033.00
400.98	3962.00
401.44	4055.00
401.91	4056.00
402.38	4081.00
402.84	4010.00
403.31	4184.00
403.78	4072.00
404.25	4176.00
404.71	4140.00
405.18	4134.00
405.65	4097.00
406.12	4118.00
406.58	4106.00
407.05	4232.00
407.52	4134.00
407.98	4942.00
408.45	4098.00
408.92	4104.00
409.38	4156.00
409.85	4051.00
410.32	4206.00
410.78	4118.00
411.25	4241.00
411.72	4172.00
412.18	4102.00
412.65	4204.00
413.12	4188.00
413.59	4188.00
414.05	4201.00
414.52	4322.00
414.98	4144.00
415.45	4274.00
415.92	4198.00
416.38	4170.00
416.85	4270.00
417.32	4240.00
417.78	4200.00
418.25	4202.00
418.72	4214.00
419.18	4229.00
419.65	4178.00
420.12	4278.00
420.58	4246.00
421.05	4280.00
421.51	4192.00
421.98	4244.00
422.45	4186.00
422.91	4225.00
423.38	4270.00
423.85	4299.00
424.31	4228.00
424.78	4290.00
425.24	4225.00
425.71	4320.00
426.18	4320.00
426.64	4332.00
427.11	4287.00
427.57	4294.00
428.04	4202.00
428.51	4261.00
428.97	4207.00
429.44	4166.00
429.90	4202.00
430.37	4310.00
430.83	4188.00
431.30	4272.00
431.77	4396.00
432.23	4374.00
432.70	4326.00
433.16	4311.00
433.63	4324.00
434.09	4292.00
434.56	4358.00
435.03	4286.00
435.49	4410.00
435.96	4396.00
436.42	4324.00
436.89	4410.00
437.35	4360.00
437.82	4353.00
438.28	4346.00
438.75	4308.00
439.21	4598.00
439.68	4426.00
440.14	4426.00
440.61	4472.00
441.07	4468.00
441.54	4424.00
442.00	4644.00
442.47	4376.00
442.94	4495.00
443.40	4468.00
443.87	4408.00
444.33	4598.00
444.80	4531.00
445.26	4493.00
445.73	4511.00
446.19	4526.00
446.65	4563.00
447.12	4604.00
447.58	4623.00
448.05	4528.00
448.51	4664.00
448.98	4716.00
449.44	4710.00
449.91	4680.00
450.37	4730.00
450.84	4688.00
451.30	4753.00
451.77	4734.00
452.23	4656.00
452.70	4760.00
453.16	4672.00
453.62	4750.00
454.09	4748.00
454.55	4755.00
455.02	4735.00
455.48	4836.00
455.95	4834.00
456.41	4819.00
456.88	4851.00
457.34	4796.00
457.80	4794.00
458.27	4760.00
458.73	4832.00
459.20	4860.00
459.66	4881.00
460.13	4771.00
460.59	4806.00
461.05	4899.00
461.52	4924.00
461.98	4858.00
462.45	4814.00
462.91	4932.00
463.37	4794.00
463.84	4809.00
464.30	4825.00
464.76	4797.00
465.23	4840.00
465.69	4905.00
466.16	4777.00
466.62	4802.00
467.08	4758.00
467.55	4821.00
468.01	4798.00
468.48	4814.00
468.94	4772.00
469.40	4720.00
469.87	4780.00
470.33	4806.00
470.79	4816.00
471.26	4788.00
471.72	4790.00
472.18	4810.00
472.65	4833.00
473.11	4934.00
473.57	4804.00
474.04	4852.00
474.50	4845.00
474.96	4791.00
475.43	4921.00
475.89	4888.00
476.35	4880.00
476.82	4874.00
477.28	4896.00
477.74	5021.00
478.21	4928.00
478.67	4938.00
479.13	4936.00
479.59	5059.00
480.06	4998.00
480.52	4960.00
480.98	4970.00
481.45	4976.00
481.91	5016.00
482.37	4906.00
482.84	5002.00
483.30	4906.00
483.76	4984.00
484.22	5095.00
484.69	4942.00
485.15	4840.00
485.61	4692.00
486.07	4756.00
486.54	4755.00
487.00	4934.00
487.46	4927.00
487.92	4920.00
488.39	4962.00
488.85	5043.00
489.31	5096.00
489.77	5188.00
490.24	5016.00
490.70	5116.00
491.16	5055.00
491.62	4994.00
492.09	5070.00
492.55	5256.00
493.01	5240.00
493.47	5190.00
493.94	5288.00
494.40	5316.00
494.86	5332.00
495.32	5266.00
495.78	5396.00
496.25	5405.00
496.71	5515.00
497.17	5591.00
497.63	5496.00
498.09	5408.00
498.56	5532.00
499.02	5594.00
499.48	5813.00
499.94	5688.00
500.40	5676.00
500.87	5712.00
501.33	5740.00
501.79	5836.00
502.25	5978.00
502.71	6401.00
503.17	6100.00
503.64	6172.00
504.10	6232.00
504.56	6376.00
505.02	6595.00
505.48	6644.00
505.94	6744.00
506.40	6886.00
506.87	6850.00
507.33	6879.00
507.79	7032.00
508.25	7142.00
508.71	7325.00
509.17	7446.00
509.63	7640.00
510.10	7708.00
510.56	7921.00
511.02	8206.00
511.48	8390.00
511.94	8324.00
512.40	8383.00
512.86	8540.00
513.32	8736.00
513.78	8792.00
514.25	9034.00
514.71	9976.00
515.17	9425.00
515.63	9782.00
516.09	9570.00
516.55	9352.00
517.01	9663.00
517.47	10084.00
517.93	10218.00
518.39	10572.00
518.85	10992.00
519.32	11258.00
519.78	11716.00
520.24	11744.00
520.70	12318.00
521.16	12697.00
521.62	12848.00
522.08	12988.00
522.54	13064.00
523.00	13548.00
523.46	13992.00
523.92	14256.00
524.38	14714.00
524.84	14686.00
525.30	14878.00
525.76	14811.00
526.22	14270.00
526.68	14310.00
527.14	14900.00
527.60	15490.00
528.06	16012.00
528.52	16472.00
528.98	16646.00
529.44	16640.00
529.90	16764.00
530.36	17238.00
530.82	17576.00
531.28	17582.00
531.74	17395.00
532.20	16982.00
532.66	17066.00
533.12	17555.00
533.58	17790.00
534.04	17774.00
534.50	18024.00
534.96	18420.00
535.42	18804.00
535.88	18712.00
536.34	18428.00
536.80	18177.00
537.26	18652.00
537.72	18878.00
538.18	18882.00
538.64	18982.00
539.10	18688.00
539.56	18776.00
540.02	18420.00
540.48	18474.00
540.94	18732.00
541.40	18909.00
541.86	19360.00
542.32	19180.00
542.78	19028.00
543.24	19368.00
543.69	19582.00
544.15	19678.00
544.61	19696.00
545.07	19700.00
545.53	19753.00
545.99	19853.00
546.45	19892.00
546.91	19924.00
547.37	19542.00
547.83	19798.00
548.29	20070.00
548.74	20165.00
549.20	20280.00
549.66	20438.00
550.12	20536.00
550.58	20292.00
551.04	20326.00
551.50	20628.00
551.96	20814.00
552.42	20438.00
552.87	20169.00
553.33	20566.00
553.79	20688.00
554.25	20618.00
554.71	20808.00
555.17	20672.00
555.63	20796.00
556.08	20616.00
556.54	20350.00
557.00	20108.00
557.46	20318.00
557.92	20305.00
558.38	19720.00
558.83	19542.00
559.29	19617.00
559.75	19745.00
560.21	19859.00
560.67	20130.00
561.13	19627.00
561.58	19336.00
562.04	19676.00
562.50	19534.00
562.96	19624.00
563.42	19316.00
563.87	19159.00
564.33	19117.00
564.79	19241.00
565.25	18632.00
565.71	18458.00
566.16	18408.00
566.62	18510.00
567.08	18426.00
567.54	18332.00
568.00	17912.00
568.45	17662.00
568.91	17588.00
569.37	17638.00
569.83	17420.00
570.28	16824.00
570.74	16734.00
571.20	16822.00
571.66	16846.00
572.11	16992.00
572.57	16843.00
573.03	16515.00
573.49	16496.00
573.94	16318.00
574.40	16359.00
574.86	15930.00
575.32	15704.00
575.77	15568.00
576.23	15503.00
576.69	15632.00
577.15	15466.00
577.60	15242.00
578.06	14898.00
578.52	15018.00
578.97	14972.00
579.43	14898.00
579.89	15016.00
580.34	14782.00
580.80	14880.00
581.26	14864.00
581.72	14627.00
582.17	14712.00
582.63	14610.00
583.09	14646.00
583.54	14646.00
584.00	14460.00
584.46	14420.00
584.91	14139.00
585.37	14127.00
585.83	13828.00
586.28	13886.00
586.74	13972.00
587.20	13922.00
587.65	13784.00
588.11	13477.00
588.57	13010.00
589.02	12280.00
589.48	12468.00
589.94	13003.00
590.39	13253.00
590.85	13160.00
591.30	13134.00
591.76	13172.00
592.22	12987.00
592.67	13060.00
593.13	13016.00
593.59	13090.00
594.04	12939.00
594.50	12720.00
594.95	13104.00
595.41	12846.00
595.87	12944.00
596.32	13058.00
596.78	13028.00
597.23	12964.00
597.69	12874.00
598.15	12602.00
598.60	12862.00
599.06	12795.00
599.51	12840.00
599.97	12816.00
600.43	12726.00
600.88	12584.00
601.34	12672.00
601.79	12486.00
602.25	12782.00
602.70	12594.00
603.16	12656.00
603.61	12649.00
604.07	12449.00
604.53	12545.00
604.98	12652.00
605.44	12512.00
605.89	12331.00
606.35	12250.00
606.80	12259.00
607.26	12074.00
607.71	12070.00
608.17	11947.00
608.62	11922.00
609.08	11950.00
609.53	11812.00
609.99	11618.00
610.44	11548.00
610.90	11638.00
611.35	11424.00
611.81	11544.00
612.26	11342.00
612.72	11346.00
613.17	11336.00
613.63	11021.00
614.08	11010.00
614.54	10992.00
614.99	10966.00
615.45	10832.00
615.90	10656.00
616.36	10528.00
616.81	10556.00
617.27	10742.00
617.72	10744.00
618.18	10690.00
618.63	10506.00
619.09	10536.00
619.54	10558.00
619.99	10516.00
620.45	10629.00
620.90	10458.00
621.36	10306.00
621.81	10380.00
622.27	10452.00
622.72	10348.00
623.18	10205.00
623.63	10238.00
624.08	10246.00
624.54	10064.00
624.99	10064.00
625.45	10043.00
625.90	10042.00
626.35	10154.00
626.81	10216.00
627.26	10108.00
627.72	9961.00
628.17	10102.00
628.62	9998.00
629.08	10016.00
629.53	9974.00
629.99	9918.00
630.44	10070.00
630.89	10052.00
631.35	9924.00
631.80	9868.00
632.26	10040.00
632.71	9985.00
633.16	10014.00
633.62	9862.00
634.07	9844.00
634.52	9848.00
634.98	9944.00
635.43	9780.00
635.88	9683.00
636.34	9723.00
636.79	9690.00
637.24	9681.00
637.70	9716.00
638.15	9566.00
638.60	9526.00
639.06	9368.00
639.51	9144.00
639.96	9070.00
640.42	9142.00
640.87	9046.00
641.32	8856.00
641.78	8774.00
642.23	8727.00
642.68	8601.00
643.14	8623.00
643.59	8556.00
644.04	8296.00
644.49	8288.00
644.95	8188.00
645.40	8082.00
645.85	7948.00
646.31	7924.00
646.76	7849.00
647.21	7720.00
647.66	7651.00
648.12	7616.00
648.57	7578.00
649.02	7466.00
649.47	7272.00
649.93	7634.00
650.38	7368.00
650.83	7414.00
651.28	7288.00
651.74	7268.00
652.19	7260.00
652.64	7303.00
653.09	7244.00
653.55	7164.00
654.00	7260.00
654.45	7132.00
654.90	6986.00
655.35	6823.00
655.81	6692.00
656.26	6349.00
656.71	6488.00
657.16	6728.00
657.62	6878.00
658.07	6748.00
658.52	6764.00
658.97	6594.00
659.42	6885.00
659.88	6627.00
660.33	6648.00
660.78	6551.00
661.23	6440.00
661.68	6418.00
662.13	6305.00
662.59	6204.00
663.04	6287.00
663.49	6164.00
663.94	6134.00
664.39	6016.00
664.84	6016.00
665.30	5962.00
665.75	5894.00
666.20	5896.00
666.65	5780.00
667.10	5935.00
667.55	5772.00
668.00	5696.00
668.46	5710.00
668.91	5607.00
669.36	5670.00
669.81	5550.00
670.26	5566.00
670.71	5625.00
671.16	5456.00
671.61	5564.00
672.06	5604.00
672.52	5484.00
672.97	5482.00
673.42	5496.00
673.87	5575.00
674.32	5388.00
674.77	5428.00
675.22	5324.00
675.67	5401.00
676.12	5402.00
676.57	5418.00
677.02	5364.00
677.47	5416.00
677.93	5474.00
678.38	5354.00
678.83	5371.00
679.28	5472.00
679.73	5404.00
680.18	5446.00
680.63	5504.00
681.08	5426.00
681.53	5450.00
681.98	5504.00
682.43	5632.00
682.88	5666.00
683.33	5686.00
683.78	5738.00
684.23	5814.00
684.68	5876.00
685.13	5982.00
685.58	6052.00
686.03	6080.00
686.48	5917.00
686.93	5770.00
687.38	5908.00
687.83	6246.00
688.28	6584.00
688.73	6879.00
689.18	6882.00
689.63	7075.00
690.08	7514.00
690.53	7796.00
690.98	8124.00
691.43	8554.00
691.88	8948.00
692.33	9360.00
692.78	9704.00
693.23	10271.00
693.68	10627.00
694.13	11084.00
694.58	11662.00
695.03	12463.00
695.48	12748.00
695.93	13488.00
696.38	14406.00
696.83	14977.00
697.28	15522.00
697.72	15901.00
698.17	16482.00
698.62	17120.00
699.07	17700.00
699.52	18060.00
699.97	18922.00
700.42	19398.00
700.87	20038.00
701.32	20796.00
701.77	21048.00
702.22	21562.00
702.67	22294.00
703.11	23128.00
703.56	23959.00
704.01	24584.00
704.46	25286.00
704.91	26102.00
705.36	26458.00
705.81	26856.00
706.26	27466.00
706.70	27942.00
707.15	28516.00
707.60	29203.00
708.05	29681.00
708.50	30278.00
708.95	30702.00
709.40	31177.00
709.84	31800.00
710.29	32326.00
710.74	32606.00
711.19	32932.00
711.64	33545.00
712.09	34206.00
712.53	34450.00
712.98	34965.00
713.43	35308.00
713.88	35874.00
714.33	35938.00
714.78	35944.00
715.22	36424.00
715.67	36732.00
716.12	35992.00
716.57	34988.00
717.02	33914.00
717.46	33160.00
717.91	32976.00
718.36	32451.00
718.81	32076.00
719.26	32610.00
719.70	32920.00
720.15	33524.00
720.60	35212.00
721.05	37822.00
721.49	39617.00
721.94	40206.00
722.39	40141.00
722.84	39340.00
723.28	38078.00
723.73	37765.00
724.18	37526.00
724.63	38537.00
725.07	38574.00
725.52	39350.00
725.97	39888.00
726.42	40514.00
726.86	41094.00
727.31	40542.00
727.76	40830.00
728.21	41882.00
728.65	41734.00
729.10	41534.00
729.55	42624.00
729.99	43484.00
730.44	43866.00
730.89	44148.00
731.33	45308.00
731.78	46446.00
732.23	47533.00
732.68	48260.00
733.12	48975.00
733.57	49825.00
734.02	50678.00
734.46	50924.00
734.91	51130.00
735.36	51464.00
735.80	51749.00
736.25	52115.00
736.70	52568.00
737.14	53209.00
737.59	53332.00
738.04	53438.00
738.48	53068.00
738.93	53122.00
739.37	53818.00
739.82	54628.00
740.27	54904.00
740.71	54721.00
741.16	54716.00
741.61	55054.00
742.05	55232.00
742.50	55597.00
742.94	56080.00
743.39	56390.00
743.84	56243.00
744.28	56138.00
744.73	56560.00
745.18	57176.00
745.62	57348.00
746.07	57538.00
746.51	57348.00
746.96	57256.00
747.40	57354.00
747.85	57033.00
748.30	57028.00
748.74	56798.00
749.19	56584.00
749.63	57072.00
750.08	57097.00
750.52	56948.00
750.97	57009.00
751.42	56948.00
751.86	57292.00
752.31	57043.00
752.75	56934.00
753.20	56612.00
753.64	56902.00
754.09	56894.00
754.53	56972.00
754.98	56768.00
755.42	56866.00
755.87	56678.00
756.31	56562.00
756.76	56170.00
757.20	55757.00
757.65	55186.00
758.09	54505.00
758.54	52367.00
758.98	46372.00
759.43	36340.00
759.87	25789.00
760.32	19976.00
760.76	20058.00
761.21	24990.00
761.65	30062.00
762.10	31594.00
762.54	30006.00
762.99	28337.00
763.43	29270.00
763.88	31240.00
764.32	33771.00
764.77	36984.00
765.21	39486.00
765.66	41842.00
766.10	44458.00
766.54	46610.00
766.99	48538.00
767.43	50060.00
767.88	51329.00
768.32	52376.00
768.77	53012.00
769.21	53638.00
769.66	54364.00
770.10	55199.00
770.54	55598.00
770.99	55412.00
771.43	55204.00
771.88	55326.00
772.32	55202.00
772.76	55182.00
773.21	55187.00
773.65	54980.00
774.10	54620.00
774.54	54356.00
774.98	54760.00
775.43	55424.00
775.87	55660.00
776.31	56024.00
776.76	55944.00
777.20	55488.00
777.65	55110.00
778.09	54772.00
778.53	54454.00
778.98	54414.00
779.42	54449.00
779.86	54291.00
780.31	54002.00
780.75	54545.00
781.19	54913.00
781.64	54980.00
782.08	55075.00
782.52	54791.00
782.97	54388.00
783.41	53752.00
783.85	53568.00
784.30	53378.00
784.74	53076.00
785.18	53048.00
785.63	52856.00
786.07	53062.00
786.51	53212.00
786.95	53162.00
787.40	53012.00
787.84	52644.00
788.28	52442.00
788.73	52024.00
789.17	51492.00
789.61	51118.00
790.05	50696.00
790.50	50508.00
790.94	50422.00
791.38	50160.00
791.82	50520.00
792.27	50402.00
792.71	50660.00
793.15	50844.00
793.59	50597.00
794.04	50248.00
794.48	50296.00
794.92	49454.00
795.36	49392.00
795.81	48837.00
796.25	48452.00
796.69	49123.00
797.13	49752.00
797.57	49940.00
798.02	50357.00
798.46	50428.00
798.90	50250.00
799.34	49638.00
799.79	49274.00
800.23	48460.00
800.67	48262.00
801.11	47850.00
801.55	47904.00
801.99	47527.00
802.44	47702.00
802.88	47763.00
803.32	48384.00
803.76	48644.00
804.20	48699.00
804.64	48669.00
805.09	48716.00
805.53	48858.00
805.97	48372.00
806.41	47654.00
806.85	47148.00
807.29	46504.00
807.74	46486.00
808.18	46328.00
808.62	46298.00
809.06	46352.00
809.50	46496.00
809.94	46670.00
810.38	46756.00
810.82	46804.00
811.27	46468.00
811.71	45572.00
812.15	44806.00
812.59	43420.00
813.03	42401.00
813.47	41082.00
813.91	40024.00
814.35	39384.00
814.79	38988.00
815.23	38724.00
815.67	38296.00
816.12	38472.00
816.56	38256.00
817.00	38408.00
817.44	39136.00
817.88	38952.00
818.32	38382.00
818.76	38614.00
819.20	38426.00
819.64	39156.00
820.08	39550.00
820.52	40457.00
820.96	40844.00
821.40	40162.00
821.84	38665.00
822.28	36970.00
822.72	36786.00
823.16	36821.00
823.60	38620.00
824.04	41178.00
824.48	41714.00
824.92	41642.00
825.36	41693.00
825.80	40992.00
826.24	40522.00
826.68	39986.00
827.12	40104.00
827.56	39344.00
828.00	39286.00
828.44	39616.00
828.88	40272.00
829.32	40586.00
829.76	40760.00
830.20	41447.00
830.64	40830.00
831.08	40740.00
831.52	40205.00
831.96	39458.00
832.40	38992.00
832.84	39436.00
833.28	39804.00
833.72	40640.00
834.16	41442.00
834.60	42332.00
835.04	42754.00
835.48	43362.00
835.91	43172.00
836.35	42881.00
836.79	42586.00
837.23	42468.00
837.67	41921.00
838.11	41874.00
838.55	41810.00
838.99	41710.00
839.43	41952.00
839.87	42544.00
840.30	43023.00
840.74	43622.00
841.18	44140.00
841.62	44136.00
842.06	44234.00
842.50	44088.00
842.94	43592.00
843.38	43124.00
843.81	42312.00
844.25	41861.00
844.69	41664.00
845.13	41680.00
845.57	41644.00
846.01	41602.00
846.45	42102.00
846.88	42416.00
847.32	42916.00
847.76	43636.00
848.20	43509.00
848.64	43034.00
849.08	42499.00
849.51	42401.00
849.95	41278.00
850.39	41478.00
850.83	42184.00
851.27	42125.00
851.70	41076.00
852.14	40940.00
852.58	40093.00
853.02	38616.00
853.46	37658.00
853.89	37575.00
854.33	37560.00
854.77	39318.00
855.21	41636.00
855.65	42858.00
856.08	43484.00
856.52	43602.00
856.96	43304.00
857.40	42481.00
857.83	41874.00
858.27	41088.00
858.71	40404.00
859.15	40425.00
859.58	40552.00
860.02	40843.00
860.46	41411.00
860.89	42188.00
861.33	42387.00
861.77	42943.00
862.21	43454.00
862.64	43526.00
863.08	43218.00
863.52	43173.00
863.95	42282.00
864.39	41400.00
864.83	39810.00
865.27	38086.00
865.70	37674.00
866.14	36848.00
866.58	37039.00
867.01	38738.00
867.45	40252.00
867.89	41204.00
868.32	42177.00
868.76	42544.00
869.20	42672.00
869.63	42956.00
870.07	42084.00
870.51	41224.00
870.94	40300.00
871.38	39586.00
871.82	38678.00
872.25	38518.00
872.69	38396.00
873.13	38618.00
873.56	39012.00
874.00	39858.00
874.43	40105.00
874.87	40922.00
875.31	41232.00
875.74	41428.00
876.18	41788.00
876.61	41640.00
877.05	41250.00
877.49	40602.00
877.92	40163.00
878.36	39558.00
878.79	38944.00
879.23	38156.00
879.67	37494.00
880.10	37502.00
880.54	37398.00
880.97	37940.00
881.41	38856.00
881.84	39900.00
882.28	40600.00
882.72	41368.00
883.15	41748.00
883.59	41888.00
884.02	41750.00
884.46	41408.00
884.89	40901.00
885.33	39930.00
885.76	38878.00
886.20	38148.00
886.63	37422.00
887.07	37170.00
887.50	37126.00
887.94	37486.00
888.37	37710.00
888.81	38424.00
889.24	38746.00
889.68	38946.00
890.11	39590.00
890.55	40028.00
890.98	40190.00
891.42	40540.00
891.85	40170.00
892.29	39660.00
892.72	38718.00
893.16	37565.00
893.59	36786.00
894.03	35712.00
894.46	34340.00
894.90	33093.00
895.33	31836.00
895.77	31808.00
896.20	31404.00
896.63	31683.00
897.07	31746.00
897.50	31280.00
897.94	31920.00
898.37	33057.00
898.81	30768.00
899.24	31246.00
899.68	32916.00
900.11	31989.00
900.54	31314.00
900.98	30783.00
901.41	30448.00
901.85	30904.00
902.28	31108.00
902.71	31310.00
903.15	32376.00
903.58	33148.00
904.02	33128.00
904.45	33400.00
904.88	32884.00
905.32	32600.00
905.75	32519.00
906.18	31498.00
906.62	31782.00
907.05	31116.00
907.48	31200.00
907.92	30750.00
908.35	30946.00
908.79	30220.00
909.22	30094.00
909.65	29956.00
910.09	29770.00
910.52	29081.00
910.95	29441.00
911.38	29430.00
911.82	28242.00
912.25	29192.00
912.68	29534.00
913.12	29426.00
913.55	29491.00
913.98	30732.00
914.42	32056.00
914.85	32132.00
915.28	30710.00
915.72	30605.00
916.15	30286.00
916.58	30392.00
917.01	29026.00
917.45	28540.00
917.88	29332.00
918.31	29612.00
918.74	30779.00
919.18	30980.00
919.61	30996.00
920.04	31594.00
920.47	31897.00
920.91	31860.00
921.34	31814.00
921.77	32440.00
922.20	32686.00
922.64	32594.00
923.07	32386.00
923.50	32194.00
923.93	31704.00
924.37	31214.00
924.80	30798.00
925.23	30404.00
925.66	29250.00
926.09	27906.00
926.53	27343.00
926.96	26196.00
927.39	25052.00
927.82	23846.00
928.25	22812.00
928.69	22482.00
929.12	22030.00
929.55	20869.00
929.98	20132.00
930.41	18840.00
930.84	18055.00
931.28	16654.00
931.71	15412.00
932.14	13834.00
932.57	13530.00
933.00	12760.00
933.43	12332.00
933.86	11414.00
934.30	11140.00
934.73	12648.00
935.16	11644.00
935.59	11196.00
936.02	11794.00
936.45	11452.00
936.88	11564.00
937.31	12684.00
937.75	13215.00
938.18	13973.00
938.61	14570.00
939.04	15340.00
939.47	14920.00
939.90	13977.00
940.33	13468.00
940.76	12538.00
941.19	11996.00
941.62	11798.00
942.05	11532.00
942.48	10168.00
942.91	10588.00
943.35	11032.00
943.78	10252.00
944.21	10260.00
944.64	11372.00
945.07	11322.00
945.50	11118.00
945.93	11490.00
946.36	11950.00
946.79	12354.00
947.22	12978.00
947.65	12434.00
948.08	12197.00
948.51	13222.00
948.94	13380.00
949.37	12632.00
949.80	12158.00
950.23	12648.00
950.66	13056.00
951.09	12948.00
951.52	12270.00
951.95	12390.00
952.38	12886.00
952.81	13768.00
953.24	14324.00
953.67	14516.00
954.10	14446.00
954.53	15233.00
954.96	14898.00
955.39	15608.00
955.82	16454.00
956.25	15742.00
956.68	16240.00
957.11	16654.00
957.53	15986.00
957.96	15884.00
958.39	15426.00
958.82	14864.00
959.25	15528.00
959.68	16092.00
960.11	16300.00
960.54	16644.00
960.97	17398.00
961.40	17936.00
961.83	17561.00
962.26	18186.00
962.68	19641.00
963.11	19828.00
963.54	20038.00
963.97	20295.00
964.40	20352.00
964.83	20773.00
965.26	21124.00
965.69	20628.00
966.11	20464.00
966.54	20722.00
966.97	21538.00
967.40	21802.00
967.83	21696.00
968.26	21796.00
968.69	22008.00
969.11	21990.00
969.54	21764.00
969.97	22076.00
970.40	22426.00
970.83	22451.00
971.26	22490.00
971.68	22696.00
972.11	22770.00
972.54	23254.00
972.97	23094.00
973.40	22786.00
973.82	22819.00
974.25	22815.00
974.68	22396.00
975.11	22250.00
975.54	21718.00
975.96	21377.00
976.39	21590.00
976.82	21393.00
977.25	21185.00
977.67	21096.00
978.10	21307.00
978.53	21508.00
978.96	22208.00
979.38	22364.00
979.81	22691.00
980.24	23656.00
980.67	23912.00
981.09	24190.00
981.52	24572.00
981.95	24436.00
982.38	24801.00
982.80	24876.00
983.23	25326.00
983.66	25202.00
984.08	25140.00
984.51	24857.00
984.94	24586.00
985.37	24400.00
985.79	23761.00
986.22	23250.00
986.65	22996.00
987.07	22600.00
987.50	22766.00
987.93	22766.00
988.35	22642.00
988.78	22985.00
989.21	22964.00
989.63	23530.00
990.06	23850.00
990.49	24012.00
990.91	24550.00
991.34	24692.00
991.77	24884.00
992.19	24759.00
992.62	24729.00
993.05	24544.00
993.47	24336.00
993.90	24086.00
994.32	23777.00
994.75	23324.00
995.18	22977.00
995.60	22677.00
996.03	22299.00
996.45	22120.00
996.88	21977.00
997.31	21786.00
997.73	21782.00
998.16	21927.00
998.58	21915.00
999.01	22258.00
999.44	22360.00
999.86	22762.00
1000.29	22836.00
1000.71	22828.00
1001.14	23118.00
1001.56	22987.00
1001.99	22958.00
1002.41	22690.00
1002.84	22166.00
1003.27	21840.00
1003.69	21338.00
1004.12	20788.00
1004.54	20536.00
1004.97	20227.00
1005.39	19937.00
1005.82	19766.00
1006.24	19648.00
1006.67	19560.00
1007.09	19548.00
1007.52	19679.00
1007.94	19450.00
1008.37	19770.00
1008.79	19755.00
1009.22	19869.00
1009.64	19680.00
1010.07	19882.00
1010.49	19824.00
1010.92	19960.00
1011.34	19940.00
1011.77	20153.00
1012.19	19900.00
1012.62	19784.00
1013.04	19328.00
1013.46	19182.00
1013.89	18724.00
1014.31	18393.00
1014.74	18032.00
1015.16	17780.00
1015.59	17656.00
1016.01	17680.00
1016.44	17688.00
1016.86	18982.00
1017.28	17750.00
1017.71	17998.00
1018.13	18100.00
1018.56	18232.00
1018.98	18436.00
1019.40	18604.00
1019.83	18624.00
1020.25	18814.00
1020.68	18940.00
1021.10	19117.00
1021.52	19232.00
1021.95	19441.00
1022.37	19421.00
1022.79	19176.00
1023.22	19136.00
1023.64	18882.00
1024.07	18680.00
1024.49	18454.00
1024.91	18254.00
1025.34	17904.00
1025.76	17907.00
1026.18	17553.00
1026.61	17512.00
1027.03	17299.00
1027.45	17532.00
1027.88	17396.00
1028.30	17532.00
1028.72	17588.00
1029.15	17720.00
1029.57	17880.00
1029.99	17964.00
1030.41	17882.00
1030.84	17762.00
1031.26	17750.00
1031.68	17644.00
1032.11	17470.00
1032.53	17326.00
1032.95	17102.00
1033.37	16876.00
1033.80	16686.00
1034.22	16312.00
1034.64	16264.00
1035.06	15745.00
1035.49	15560.00
1035.91	15468.00
1036.33	15218.00
1036.75	15150.00
1037.18	15070.00
1037.60	14995.00
1038.02	15034.00
1038.44	14980.00
1038.87	15034.00
1039.29	15050.00
1039.71	15170.00
1040.13	15069.00
1040.55	15111.00
1040.98	15026.00
1041.40	14910.00
1041.82	14810.00
1042.24	14656.00
1042.66	14536.00
1043.09	14239.00
1043.51	14100.00
1043.93	13978.00
1044.35	13688.00
1044.77	13483.00
1045.20	13502.00
1045.62	13190.00
1046.04	13054.00
1046.46	12959.00
1046.88	12544.00
1047.30	12694.00
1047.72	12480.00
1048.15	12459.00
1048.57	12298.00
1048.99	12318.00
1049.41	12302.00
1049.83	12228.00
1050.25	12364.00
1050.67	12132.00
1051.09	12138.00
1051.52	12140.00
1051.94	11986.00
1052.36	12000.00
1052.78	11848.00
1053.20	11892.00
1053.62	11735.00
1054.04	11588.00
1054.46	11540.00
1054.88	11492.00
1055.30	11380.00
1055.72	11180.00
1056.14	11074.00
1056.57	11126.00
1056.99	10722.00
1057.41	10646.00
1057.83	10512.00
1058.25	10308.00
1058.67	10192.00
1059.09	10092.00
1059.51	10020.00
1059.93	9876.00
1060.35	9858.00
1060.77	9840.00
1061.19	9784.00
1061.61	9711.00
1062.03	9635.00
1062.45	9624.00
1062.87	9642.00
1063.29	9570.00
1063.71	9464.00
1064.13	9418.00
1064.55	9373.00
1064.97	9403.00
1065.39	9260.00
1065.81	9172.00
1066.23	9197.00
1066.65	9042.00
1067.07	9018.00
1067.49	8876.00
1067.91	8768.00
1068.33	8656.00
1068.75	8702.00
1069.17	8696.00
1069.59	8542.00
1070.00	8266.00
1070.42	8426.00
1070.84	8298.00
1071.26	8146.00
1071.68	8056.00
1072.10	8194.00
1072.52	8123.00
1072.94	7979.00
1073.36	8048.00
1073.78	7955.00
1074.20	7998.00
1074.62	7980.00
1075.03	7870.00
1075.45	7923.00
1075.87	7956.00
1076.29	7870.00
1076.71	7830.00
1077.13	7870.00
1077.55	7553.00
1077.97	7570.00
1078.38	7566.00
1078.80	7434.00
1079.22	7370.00
1079.64	7278.00
1080.06	7220.00
1080.48	7200.00
1080.89	7073.00
1081.31	7078.00
1081.73	7000.00
1082.15	6992.00
1082.57	6988.00
1082.99	6933.00
1083.40	6794.00
1083.82	6820.00
1084.24	6742.00
1084.66	6753.00
1085.08	6694.00
1085.49	6555.00
1085.91	6674.00
1086.33	8184.00
1086.75	6610.00
1087.17	6568.00
1087.58	6561.00
1088.00	6557.00
1088.42	6681.00
1088.84	6518.00
1089.25	6366.00
1089.67	6344.00
1090.09	6276.00
1090.51	6192.00
1090.92	6226.00
1091.34	6020.00
1091.76	6044.00
1092.18	5926.00
1092.59	5874.00
1093.01	5892.00
1093.43	5774.00
1093.84	5752.00
1094.26	5812.00
1094.68	5704.00
1095.10	5640.00
1095.51	5644.00
1095.93	5598.00
1096.35	5587.00
1096.76	5585.00
1097.18	5523.00
1097.60	5456.00
1098.01	5456.00
1098.43	5364.00
1098.85	5430.00
1099.26	5300.00
1099.68	5269.00
1100.10	5198.00
1100.51	5167.00
1100.93	5096.00
1101.35	5100.00
1101.76	5046.00
1102.18	5586.00
1102.60	5021.00
1103.01	4847.00
1103.43	4950.00
1103.84	4876.00
1104.26	4824.00
1104.68	4838.00
1105.09	4750.00
1105.51	4769.00
1105.92	4790.00
1106.34	4666.00
1106.76	4748.00
1107.17	4612.00
1107.59	4598.00
1108.00	4452.00
1108.42	4460.00
1108.83	4381.00
1109.25	4404.00
1109.67	4348.00
1110.08	4326.00
1110.50	4296.00
1110.91	4300.00
1111.33	4224.00
1111.74	4208.00
1112.16	4174.00
1112.57	4156.00
1112.99	4079.00
1113.41	4038.00
1113.82	4011.00
1114.24	3911.00
1114.65	3858.00
1115.07	3692.00
1115.48	3546.00
1115.90	2190.00
1116.31	2215.00
1116.73	2216.00
1117.14	2221.00
>>>>>End Processed Spectral Data<<<<<
