SpectraSuite Data File
++++++++++++++++++++++++++++++++++++
Date: Tue May 29 13:10:20 EEST 2018
User: CanSEE
Dark Spectrum Present: No
Reference Spectrum Present: No
Number of Sampled Component Spectra: 1
Spectrometers: MAYP11278
Integration Time (usec): 230000 (MAYP11278)
Spectra Averaged: 1 (MAYP11278)
Boxcar Smoothing: 0 (MAYP11278)
Correct for Electrical Dark: No (MAYP11278)
Strobe/Lamp Enabled: No (MAYP11278)
Correct for Detector Non-linearity: No (MAYP11278)
Correct for Stray Light: No (MAYP11278)
Number of Pixels in Processed Spectrum: 2068
>>>>>Begin Processed Spectral Data<<<<<
187.82	2335.00
188.30	2235.00
188.78	2212.00
189.26	2215.00
189.73	3236.00
190.21	3357.00
190.69	3494.00
191.17	3484.00
191.64	3575.00
192.12	3507.00
192.60	3493.00
193.07	3457.00
193.55	3508.00
194.03	3487.00
194.51	3527.00
194.98	3493.00
195.46	3556.00
195.94	3462.00
196.42	3523.00
196.89	3631.00
197.37	3491.00
197.85	3456.00
198.32	3493.00
198.80	3475.00
199.28	3483.00
199.76	3528.00
200.23	3484.00
200.71	3483.00
201.19	3537.00
201.66	3566.00
202.14	3548.00
202.62	3487.00
203.09	3510.00
203.57	3493.00
204.05	3575.00
204.53	3557.00
205.00	3495.00
205.48	3501.00
205.96	3535.00
206.43	3503.00
206.91	3528.00
207.39	3647.00
207.86	3508.00
208.34	3546.00
208.82	3480.00
209.29	3520.00
209.77	3518.00
210.25	3498.00
210.72	3521.00
211.20	3539.00
211.68	3495.00
212.15	3493.00
212.63	3585.00
213.11	3548.00
213.58	3530.00
214.06	3589.00
214.53	3517.00
215.01	3547.00
215.49	3531.00
215.96	3550.00
216.44	3545.00
216.92	3538.00
217.39	3473.00
217.87	3518.00
218.35	3521.00
218.82	3504.00
219.30	3490.00
219.77	3487.00
220.25	3481.00
220.73	3645.00
221.20	3482.00
221.68	3546.00
222.15	3521.00
222.63	3551.00
223.11	3496.00
223.58	3532.00
224.06	3524.00
224.53	3482.00
225.01	3477.00
225.49	3520.00
225.96	3507.00
226.44	3507.00
226.91	3564.00
227.39	3504.00
227.87	3529.00
228.34	3547.00
228.82	3529.00
229.29	3505.00
229.77	3517.00
230.24	3515.00
230.72	3536.00
231.20	3615.00
231.67	3472.00
232.15	3531.00
232.62	3446.00
233.10	3505.00
233.57	3506.00
234.05	3701.00
234.53	3518.00
235.00	3506.00
235.48	3504.00
235.95	3525.00
236.43	3531.00
236.90	3631.00
237.38	3460.00
237.85	3494.00
238.33	3502.00
238.80	3530.00
239.28	3492.00
239.75	3499.00
240.23	3538.00
240.71	3599.00
241.18	3523.00
241.66	3538.00
242.13	3528.00
242.61	3577.00
243.08	3469.00
243.56	3509.00
244.03	3578.00
244.51	3591.00
244.98	3481.00
245.46	3576.00
245.93	4687.00
246.41	3469.00
246.88	3522.00
247.36	3532.00
247.83	3535.00
248.31	3542.00
248.78	3497.00
249.26	3547.00
249.73	3536.00
250.21	3577.00
250.68	3598.00
251.16	3521.00
251.63	3607.00
252.10	3623.00
252.58	3493.00
253.05	3610.00
253.53	3523.00
254.00	3557.00
254.48	3539.00
254.95	3526.00
255.43	3555.00
255.90	3511.00
256.38	3560.00
256.85	3550.00
257.33	3585.00
257.80	3671.00
258.27	3560.00
258.75	3508.00
259.22	3499.00
259.70	3557.00
260.17	3599.00
260.65	3556.00
261.12	3495.00
261.59	3608.00
262.07	3531.00
262.54	3583.00
263.02	3557.00
263.49	3490.00
263.97	3547.00
264.44	3597.00
264.91	3563.00
265.39	3577.00
265.86	3575.00
266.34	3563.00
266.81	3580.00
267.28	3544.00
267.76	3556.00
268.23	3547.00
268.71	3496.00
269.18	3475.00
269.65	3506.00
270.13	3504.00
270.60	3602.00
271.08	3552.00
271.55	3541.00
272.02	3521.00
272.50	3510.00
272.97	3435.00
273.44	3526.00
273.92	3705.00
274.39	3517.00
274.87	3574.00
275.34	3488.00
275.81	3511.00
276.29	3535.00
276.76	3513.00
277.23	3457.00
277.71	3462.00
278.18	3424.00
278.65	3606.00
279.13	3410.00
279.60	3521.00
280.07	3808.00
280.55	3757.00
281.02	3809.00
281.50	3579.00
281.97	3640.00
282.44	3598.00
282.91	3569.00
283.39	3575.00
283.86	3579.00
284.33	3558.00
284.81	3582.00
285.28	3569.00
285.75	3585.00
286.23	3567.00
286.70	3511.00
287.17	3559.00
287.65	3612.00
288.12	3540.00
288.59	3565.00
289.07	3463.00
289.54	3602.00
290.01	3511.00
290.48	3573.00
290.96	3556.00
291.43	3546.00
291.90	3629.00
292.38	3510.00
292.85	3593.00
293.32	3519.00
293.79	3613.00
294.27	3548.00
294.74	3570.00
295.21	3575.00
295.69	3539.00
296.16	3619.00
296.63	3635.00
297.10	3541.00
297.58	3595.00
298.05	3572.00
298.52	3557.00
298.99	3617.00
299.47	3534.00
299.94	3564.00
300.41	3540.00
300.88	3605.00
301.36	3585.00
301.83	3606.00
302.30	3503.00
302.77	3601.00
303.25	3603.00
303.72	3555.00
304.19	3564.00
304.66	3482.00
305.13	3573.00
305.61	3565.00
306.08	3576.00
306.55	3605.00
307.02	3534.00
307.49	3541.00
307.97	3573.00
308.44	3518.00
308.91	3589.00
309.38	3594.00
309.86	3591.00
310.33	3529.00
310.80	3579.00
311.27	3530.00
311.74	3578.00
312.21	3532.00
312.69	3669.00
313.16	3562.00
313.63	3570.00
314.10	3558.00
314.57	3548.00
315.05	3565.00
315.52	3618.00
315.99	3585.00
316.46	3611.00
316.93	3562.00
317.40	3578.00
317.88	3706.00
318.35	3545.00
318.82	3596.00
319.29	3513.00
319.76	3599.00
320.23	3653.00
320.70	3570.00
321.18	3543.00
321.65	3505.00
322.12	3547.00
322.59	3646.00
323.06	3583.00
323.53	3718.00
324.00	3531.00
324.48	3617.00
324.95	3592.00
325.42	3546.00
325.89	3588.00
326.36	3541.00
326.83	3645.00
327.30	3599.00
327.77	3610.00
328.24	3619.00
328.72	3545.00
329.19	3591.00
329.66	3589.00
330.13	3582.00
330.60	3646.00
331.07	3620.00
331.54	3680.00
332.01	3519.00
332.48	3732.00
332.95	3614.00
333.43	3625.00
333.90	3673.00
334.37	3629.00
334.84	3626.00
335.31	3785.00
335.78	3571.00
336.25	3618.00
336.72	3593.00
337.19	3580.00
337.66	3547.00
338.13	3604.00
338.60	3651.00
339.07	3569.00
339.54	3506.00
340.01	3518.00
340.49	3500.00
340.96	3575.00
341.43	3597.00
341.90	3525.00
342.37	3573.00
342.84	3551.00
343.31	3501.00
343.78	3517.00
344.25	3526.00
344.72	3479.00
345.19	3558.00
345.66	3554.00
346.13	3529.00
346.60	3491.00
347.07	3627.00
347.54	3487.00
348.01	3549.00
348.48	3570.00
348.95	3475.00
349.42	3528.00
349.89	3593.00
350.36	3569.00
350.83	3526.00
351.30	3555.00
351.77	3663.00
352.24	3545.00
352.71	3514.00
353.18	3485.00
353.65	3565.00
354.12	3530.00
354.59	3581.00
355.06	3545.00
355.53	3651.00
356.00	3496.00
356.47	3587.00
356.94	3528.00
357.41	3706.00
357.88	3565.00
358.35	3498.00
358.82	3502.00
359.28	3535.00
359.75	3508.00
360.22	3587.00
360.69	3634.00
361.16	3565.00
361.63	3548.00
362.10	3562.00
362.57	3538.00
363.04	3542.00
363.51	3650.00
363.98	3583.00
364.45	3518.00
364.92	3554.00
365.39	3528.00
365.86	3502.00
366.32	3525.00
366.79	3607.00
367.26	4439.00
367.73	3599.00
368.20	3519.00
368.67	3632.00
369.14	3552.00
369.61	3584.00
370.08	3563.00
370.55	3523.00
371.02	4282.00
371.48	3573.00
371.95	3520.00
372.42	3500.00
372.89	3575.00
373.36	3557.00
373.83	3528.00
374.30	3523.00
374.77	3582.00
375.23	3487.00
375.70	3645.00
376.17	3555.00
376.64	3545.00
377.11	3556.00
377.58	3567.00
378.05	3580.00
378.51	3618.00
378.98	3573.00
379.45	3533.00
379.92	3628.00
380.39	3687.00
380.86	3535.00
381.33	3659.00
381.79	3646.00
382.26	3495.00
382.73	3585.00
383.20	3537.00
383.67	3633.00
384.14	3558.00
384.60	3765.00
385.07	3584.00
385.54	3573.00
386.01	3554.00
386.48	3666.00
386.94	3530.00
387.41	3500.00
387.88	3561.00
388.35	3599.00
388.82	3597.00
389.28	3559.00
389.75	3603.00
390.22	3582.00
390.69	3625.00
391.16	3551.00
391.62	3572.00
392.09	3556.00
392.56	3532.00
393.03	3611.00
393.50	3703.00
393.96	3594.00
394.43	3589.00
394.90	3543.00
395.37	3598.00
395.83	3785.00
396.30	3501.00
396.77	3583.00
397.24	3605.00
397.70	3533.00
398.17	3594.00
398.64	3577.00
399.11	3527.00
399.57	3600.00
400.04	3535.00
400.51	3578.00
400.98	3506.00
401.44	3583.00
401.91	3554.00
402.38	3594.00
402.84	3557.00
403.31	3653.00
403.78	3560.00
404.25	3629.00
404.71	3642.00
405.18	3620.00
405.65	3504.00
406.12	3617.00
406.58	3596.00
407.05	3653.00
407.52	3556.00
407.98	4080.00
408.45	3535.00
408.92	3545.00
409.38	3620.00
409.85	3532.00
410.32	3637.00
410.78	3539.00
411.25	3622.00
411.72	3497.00
412.18	3495.00
412.65	3589.00
413.12	3542.00
413.59	3557.00
414.05	3591.00
414.52	3642.00
414.98	3537.00
415.45	3573.00
415.92	3543.00
416.38	3545.00
416.85	3618.00
417.32	3570.00
417.78	3533.00
418.25	3559.00
418.72	3535.00
419.18	3575.00
419.65	3471.00
420.12	3604.00
420.58	3478.00
421.05	3556.00
421.51	3536.00
421.98	3560.00
422.45	3536.00
422.91	3542.00
423.38	3580.00
423.85	3630.00
424.31	3573.00
424.78	3577.00
425.24	3536.00
425.71	3607.00
426.18	3541.00
426.64	3627.00
427.11	3571.00
427.57	3563.00
428.04	3486.00
428.51	3586.00
428.97	3566.00
429.44	3555.00
429.90	3545.00
430.37	3688.00
430.83	3505.00
431.30	3508.00
431.77	3634.00
432.23	3631.00
432.70	3545.00
433.16	3518.00
433.63	3564.00
434.09	3583.00
434.56	3616.00
435.03	3562.00
435.49	3561.00
435.96	3607.00
436.42	3506.00
436.89	3637.00
437.35	3568.00
437.82	3579.00
438.28	3555.00
438.75	3560.00
439.21	3717.00
439.68	3609.00
440.14	3597.00
440.61	3656.00
441.07	3544.00
441.54	3559.00
442.00	3692.00
442.47	3514.00
442.94	3547.00
443.40	3607.00
443.87	3521.00
444.33	3660.00
444.80	3587.00
445.26	3585.00
445.73	3567.00
446.19	3575.00
446.65	3522.00
447.12	3598.00
447.58	3515.00
448.05	3526.00
448.51	3601.00
448.98	3580.00
449.44	3582.00
449.91	3552.00
450.37	3520.00
450.84	3516.00
451.30	3570.00
451.77	3625.00
452.23	3478.00
452.70	3590.00
453.16	3513.00
453.62	3488.00
454.09	3565.00
454.55	3585.00
455.02	3514.00
455.48	3496.00
455.95	3564.00
456.41	3517.00
456.88	3579.00
457.34	3525.00
457.80	3500.00
458.27	3457.00
458.73	3494.00
459.20	3499.00
459.66	3499.00
460.13	3478.00
460.59	3438.00
461.05	3560.00
461.52	3471.00
461.98	3443.00
462.45	3400.00
462.91	3499.00
463.37	3451.00
463.84	3436.00
464.30	3423.00
464.76	3412.00
465.23	3408.00
465.69	3467.00
466.16	3445.00
466.62	3465.00
467.08	3454.00
467.55	3382.00
468.01	3439.00
468.48	3421.00
468.94	3433.00
469.40	3396.00
469.87	3405.00
470.33	3419.00
470.79	3391.00
471.26	3387.00
471.72	3339.00
472.18	3385.00
472.65	3387.00
473.11	3392.00
473.57	3401.00
474.04	3346.00
474.50	3327.00
474.96	3330.00
475.43	3357.00
475.89	3377.00
476.35	3385.00
476.82	3374.00
477.28	3348.00
477.74	3435.00
478.21	3391.00
478.67	3407.00
479.13	3357.00
479.59	3443.00
480.06	3341.00
480.52	3370.00
480.98	3341.00
481.45	3335.00
481.91	3371.00
482.37	3311.00
482.84	3339.00
483.30	3311.00
483.76	3370.00
484.22	3435.00
484.69	3343.00
485.15	3326.00
485.61	3297.00
486.07	3292.00
486.54	3275.00
487.00	3315.00
487.46	3314.00
487.92	3330.00
488.39	3316.00
488.85	3345.00
489.31	3379.00
489.77	3385.00
490.24	3290.00
490.70	3355.00
491.16	3320.00
491.62	3327.00
492.09	3302.00
492.55	3433.00
493.01	3372.00
493.47	3350.00
493.94	3345.00
494.40	3319.00
494.86	3344.00
495.32	3343.00
495.78	3368.00
496.25	3339.00
496.71	3354.00
497.17	3445.00
497.63	3399.00
498.09	3313.00
498.56	3347.00
499.02	3352.00
499.48	3488.00
499.94	3392.00
500.40	3354.00
500.87	3364.00
501.33	3318.00
501.79	3401.00
502.25	3372.00
502.71	3713.00
503.17	3393.00
503.64	3419.00
504.10	3417.00
504.56	3401.00
505.02	3453.00
505.48	3445.00
505.94	3474.00
506.40	3513.00
506.87	3456.00
507.33	3482.00
507.79	3482.00
508.25	3474.00
508.71	3477.00
509.17	3430.00
509.63	3520.00
510.10	3510.00
510.56	3574.00
511.02	3641.00
511.48	3643.00
511.94	3567.00
512.40	3576.00
512.86	3649.00
513.32	3675.00
513.78	3648.00
514.25	3758.00
514.71	4421.00
515.17	3686.00
515.63	3800.00
516.09	3830.00
516.55	3805.00
517.01	3921.00
517.47	3857.00
517.93	3933.00
518.39	4115.00
518.85	4039.00
519.32	4069.00
519.78	4077.00
520.24	4153.00
520.70	4259.00
521.16	4339.00
521.62	4432.00
522.08	4379.00
522.54	4385.00
523.00	4585.00
523.46	4639.00
523.92	4669.00
524.38	4849.00
524.84	4801.00
525.30	4889.00
525.76	4930.00
526.22	4793.00
526.68	4763.00
527.14	4933.00
527.60	5053.00
528.06	5215.00
528.52	5348.00
528.98	5318.00
529.44	5355.00
529.90	5525.00
530.36	5583.00
530.82	5549.00
531.28	5692.00
531.74	5667.00
532.20	5626.00
532.66	5677.00
533.12	5817.00
533.58	5825.00
534.04	5765.00
534.50	5966.00
534.96	5994.00
535.42	6176.00
535.88	6120.00
536.34	6192.00
536.80	6093.00
537.26	6309.00
537.72	6313.00
538.18	6346.00
538.64	6445.00
539.10	6413.00
539.56	6529.00
540.02	6280.00
540.48	6456.00
540.94	6469.00
541.40	6496.00
541.86	6554.00
542.32	6687.00
542.78	6616.00
543.24	6806.00
543.69	6794.00
544.15	6933.00
544.61	6845.00
545.07	6859.00
545.53	6849.00
545.99	7009.00
546.45	6995.00
546.91	7013.00
547.37	6994.00
547.83	7049.00
548.29	7095.00
548.74	7157.00
549.20	7212.00
549.66	7342.00
550.12	7300.00
550.58	7283.00
551.04	7320.00
551.50	7369.00
551.96	7443.00
552.42	7359.00
552.87	7330.00
553.33	7406.00
553.79	7444.00
554.25	7461.00
554.71	7511.00
555.17	7506.00
555.63	7625.00
556.08	7457.00
556.54	7473.00
557.00	7321.00
557.46	7384.00
557.92	7418.00
558.38	7271.00
558.83	7175.00
559.29	7213.00
559.75	7177.00
560.21	7179.00
560.67	7314.00
561.13	7309.00
561.58	7216.00
562.04	7101.00
562.50	7134.00
562.96	7169.00
563.42	7093.00
563.87	7016.00
564.33	7089.00
564.79	7000.00
565.25	6881.00
565.71	6831.00
566.16	6803.00
566.62	6758.00
567.08	6729.00
567.54	6737.00
568.00	6677.00
568.45	6483.00
568.91	6503.00
569.37	6471.00
569.83	6379.00
570.28	6251.00
570.74	6237.00
571.20	6170.00
571.66	6182.00
572.11	6207.00
572.57	6177.00
573.03	6066.00
573.49	6007.00
573.94	5997.00
574.40	6038.00
574.86	5859.00
575.32	5800.00
575.77	5847.00
576.23	5651.00
576.69	5848.00
577.15	5654.00
577.60	5653.00
578.06	5501.00
578.52	5604.00
578.97	5590.00
579.43	5502.00
579.89	5550.00
580.34	5543.00
580.80	5451.00
581.26	5447.00
581.72	5441.00
582.17	5428.00
582.63	5332.00
583.09	5391.00
583.54	5346.00
584.00	5297.00
584.46	5320.00
584.91	5245.00
585.37	5391.00
585.83	5138.00
586.28	5179.00
586.74	5183.00
587.20	5229.00
587.65	5211.00
588.11	5113.00
588.57	5001.00
589.02	4872.00
589.48	4849.00
589.94	4970.00
590.39	5083.00
590.85	5008.00
591.30	4996.00
591.76	5107.00
592.22	4954.00
592.67	4946.00
593.13	5010.00
593.59	5058.00
594.04	4968.00
594.50	4935.00
594.95	4947.00
595.41	4949.00
595.87	4884.00
596.32	5022.00
596.78	4992.00
597.23	4973.00
597.69	4936.00
598.15	4851.00
598.60	4855.00
599.06	4940.00
599.51	4836.00
599.97	4931.00
600.43	4904.00
600.88	4899.00
601.34	4943.00
601.79	4783.00
602.25	4979.00
602.70	4795.00
603.16	4879.00
603.61	4805.00
604.07	4768.00
604.53	4861.00
604.98	4823.00
605.44	4802.00
605.89	4797.00
606.35	4746.00
606.80	4721.00
607.26	4755.00
607.71	4679.00
608.17	4769.00
608.62	4636.00
609.08	4794.00
609.53	4693.00
609.99	4592.00
610.44	4534.00
610.90	4596.00
611.35	4505.00
611.81	4618.00
612.26	4525.00
612.72	4482.00
613.17	4577.00
613.63	4407.00
614.08	4390.00
614.54	4360.00
614.99	4351.00
615.45	4390.00
615.90	4341.00
616.36	4322.00
616.81	4271.00
617.27	4348.00
617.72	4337.00
618.18	4311.00
618.63	4281.00
619.09	4253.00
619.54	4357.00
619.99	4292.00
620.45	4305.00
620.90	4333.00
621.36	4244.00
621.81	4283.00
622.27	4284.00
622.72	4286.00
623.18	4215.00
623.63	4126.00
624.08	4244.00
624.54	4143.00
624.99	4167.00
625.45	4155.00
625.90	4151.00
626.35	4198.00
626.81	4174.00
627.26	4169.00
627.72	4181.00
628.17	4231.00
628.62	4157.00
629.08	4158.00
629.53	4148.00
629.99	4127.00
630.44	4223.00
630.89	4151.00
631.35	4246.00
631.80	4185.00
632.26	4198.00
632.71	4131.00
633.16	4189.00
633.62	4177.00
634.07	4131.00
634.52	4099.00
634.98	4173.00
635.43	4111.00
635.88	4107.00
636.34	4145.00
636.79	4149.00
637.24	4042.00
637.70	4155.00
638.15	4111.00
638.60	4030.00
639.06	4025.00
639.51	3995.00
639.96	3971.00
640.42	4039.00
640.87	4052.00
641.32	3937.00
641.78	3907.00
642.23	3919.00
642.68	3886.00
643.14	3915.00
643.59	3944.00
644.04	3879.00
644.49	3825.00
644.95	3816.00
645.40	3793.00
645.85	3830.00
646.31	3828.00
646.76	3810.00
647.21	3805.00
647.66	3751.00
648.12	3778.00
648.57	3716.00
649.02	3782.00
649.47	3722.00
649.93	3895.00
650.38	3690.00
650.83	3662.00
651.28	3671.00
651.74	3693.00
652.19	3625.00
652.64	3680.00
653.09	3620.00
653.55	3608.00
654.00	3684.00
654.45	3671.00
654.90	3596.00
655.35	3617.00
655.81	3604.00
656.26	3547.00
656.71	3577.00
657.16	3618.00
657.62	3643.00
658.07	3569.00
658.52	3601.00
658.97	3551.00
659.42	3769.00
659.88	3550.00
660.33	3625.00
660.78	3553.00
661.23	3509.00
661.68	3510.00
662.13	3505.00
662.59	3503.00
663.04	3555.00
663.49	3455.00
663.94	3489.00
664.39	3456.00
664.84	3455.00
665.30	3469.00
665.75	3433.00
666.20	3475.00
666.65	3474.00
667.10	3578.00
667.55	3510.00
668.00	3430.00
668.46	3484.00
668.91	3427.00
669.36	3552.00
669.81	3345.00
670.26	3411.00
670.71	3485.00
671.16	3447.00
671.61	3524.00
672.06	3558.00
672.52	3427.00
672.97	3428.00
673.42	3517.00
673.87	3572.00
674.32	3398.00
674.77	3478.00
675.22	3391.00
675.67	3369.00
676.12	3430.00
676.57	3439.00
677.02	3421.00
677.47	3401.00
677.93	3571.00
678.38	3420.00
678.83	3440.00
679.28	3439.00
679.73	3421.00
680.18	3453.00
680.63	3431.00
681.08	3352.00
681.53	3372.00
681.98	3417.00
682.43	3469.00
682.88	3498.00
683.33	3489.00
683.78	3484.00
684.23	3575.00
684.68	3498.00
685.13	3506.00
685.58	3494.00
686.03	3499.00
686.48	3486.00
686.93	3471.00
687.38	3481.00
687.83	3574.00
688.28	3574.00
688.73	3759.00
689.18	3702.00
689.63	3598.00
690.08	3739.00
690.53	3815.00
690.98	3797.00
691.43	3931.00
691.88	3986.00
692.33	4101.00
692.78	4187.00
693.23	4319.00
693.68	4419.00
694.13	4567.00
694.58	4647.00
695.03	5065.00
695.48	4995.00
695.93	5218.00
696.38	5540.00
696.83	5664.00
697.28	5802.00
697.72	6084.00
698.17	6291.00
698.62	6471.00
699.07	6811.00
699.52	7060.00
699.97	7394.00
700.42	7719.00
700.87	8029.00
701.32	8455.00
701.77	8594.00
702.22	9003.00
702.67	9342.00
703.11	9783.00
703.56	10240.00
704.01	10643.00
704.46	11173.00
704.91	11648.00
705.36	11951.00
705.81	12353.00
706.26	12555.00
706.70	13177.00
707.15	13653.00
707.60	13982.00
708.05	14589.00
708.50	14872.00
708.95	15232.00
709.40	15857.00
709.84	16192.00
710.29	16828.00
710.74	17100.00
711.19	17673.00
711.64	17966.00
712.09	18383.00
712.53	18845.00
712.98	19569.00
713.43	19867.00
713.88	20316.00
714.33	20701.00
714.78	20910.00
715.22	21265.00
715.67	21697.00
716.12	21622.00
716.57	21196.00
717.02	20653.00
717.46	20301.00
717.91	20517.00
718.36	20473.00
718.81	20323.00
719.26	20782.00
719.70	21396.00
720.15	21907.00
720.60	22942.00
721.05	24840.00
721.49	26165.00
721.94	26755.00
722.39	27030.00
722.84	26599.00
723.28	25812.00
723.73	25911.00
724.18	26043.00
724.63	26695.00
725.07	27164.00
725.52	27798.00
725.97	28404.00
726.42	28971.00
726.86	29607.00
727.31	29296.00
727.76	29732.00
728.21	30422.00
728.65	30715.00
729.10	30687.00
729.55	31580.00
729.99	32513.00
730.44	32910.00
730.89	33348.00
731.33	34260.00
731.78	35132.00
732.23	36437.00
732.68	36953.00
733.12	37663.00
733.57	38595.00
734.02	39357.00
734.46	39927.00
734.91	39984.00
735.36	40372.00
735.80	40938.00
736.25	41113.00
736.70	41632.00
737.14	42303.00
737.59	42547.00
738.04	42814.00
738.48	42429.00
738.93	42719.00
739.37	43070.00
739.82	44265.00
740.27	44471.00
740.71	44626.00
741.16	44576.00
741.61	44979.00
742.05	45187.00
742.50	45634.00
742.94	45977.00
743.39	46448.00
743.84	46629.00
744.28	46652.00
744.73	47010.00
745.18	47372.00
745.62	47820.00
746.07	47844.00
746.51	48087.00
746.96	48022.00
747.40	47915.00
747.85	47762.00
748.30	48244.00
748.74	48001.00
749.19	47860.00
749.63	48332.00
750.08	48449.00
750.52	48574.00
750.97	48401.00
751.42	48491.00
751.86	48538.00
752.31	48529.00
752.75	48313.00
753.20	48506.00
753.64	48680.00
754.09	48725.00
754.53	48851.00
754.98	49003.00
755.42	48733.00
755.87	49035.00
756.31	48526.00
756.76	48125.00
757.20	47861.00
757.65	47784.00
758.09	47056.00
758.54	45517.00
758.98	40755.00
759.43	32191.00
759.87	22831.00
760.32	17278.00
760.76	17010.00
761.21	21102.00
761.65	25977.00
762.10	27233.00
762.54	25929.00
762.99	24457.00
763.43	25296.00
763.88	26854.00
764.32	29309.00
764.77	31744.00
765.21	34199.00
765.66	36349.00
766.10	38362.00
766.54	40178.00
766.99	42083.00
767.43	43398.00
767.88	44773.00
768.32	45379.00
768.77	46373.00
769.21	47041.00
769.66	47509.00
770.10	48153.00
770.54	48550.00
770.99	48293.00
771.43	48433.00
771.88	48358.00
772.32	48380.00
772.76	48136.00
773.21	48154.00
773.65	48224.00
774.10	47888.00
774.54	47750.00
774.98	48088.00
775.43	48451.00
775.87	48784.00
776.31	49012.00
776.76	49010.00
777.20	48967.00
777.65	48173.00
778.09	48097.00
778.53	47759.00
778.98	47766.00
779.42	47893.00
779.86	47872.00
780.31	47849.00
780.75	48025.00
781.19	48090.00
781.64	48396.00
782.08	48349.00
782.52	48014.00
782.97	47630.00
783.41	47439.00
783.85	47052.00
784.30	46860.00
784.74	46778.00
785.18	46414.00
785.63	46490.00
786.07	46728.00
786.51	46908.00
786.95	46897.00
787.40	46692.00
787.84	46563.00
788.28	46314.00
788.73	45797.00
789.17	45336.00
789.61	44594.00
790.05	44687.00
790.50	44247.00
790.94	44502.00
791.38	44426.00
791.82	44393.00
792.27	44481.00
792.71	44708.00
793.15	44881.00
793.59	44712.00
794.04	44444.00
794.48	44198.00
794.92	43736.00
795.36	43435.00
795.81	43021.00
796.25	43137.00
796.69	43138.00
797.13	43668.00
797.57	44270.00
798.02	44282.00
798.46	44319.00
798.90	44473.00
799.34	43815.00
799.79	43368.00
800.23	42504.00
800.67	42368.00
801.11	42374.00
801.55	42269.00
801.99	42049.00
802.44	42166.00
802.88	42388.00
803.32	42693.00
803.76	43107.00
804.20	43341.00
804.64	43057.00
805.09	42946.00
805.53	42777.00
805.97	42500.00
806.41	42087.00
806.85	41716.00
807.29	41179.00
807.74	41123.00
808.18	41025.00
808.62	40901.00
809.06	40936.00
809.50	41053.00
809.94	41162.00
810.38	41294.00
810.82	41357.00
811.27	41141.00
811.71	40071.00
812.15	39481.00
812.59	38513.00
813.03	37512.00
813.47	36191.00
813.91	35414.00
814.35	34843.00
814.79	34556.00
815.23	34175.00
815.67	33790.00
816.12	34052.00
816.56	33891.00
817.00	34160.00
817.44	34352.00
817.88	34504.00
818.32	33865.00
818.76	34261.00
819.20	33860.00
819.64	34242.00
820.08	34661.00
820.52	35535.00
820.96	36305.00
821.40	35594.00
821.84	34602.00
822.28	32739.00
822.72	32402.00
823.16	32254.00
823.60	33987.00
824.04	36323.00
824.48	36854.00
824.92	36940.00
825.36	36832.00
825.80	36426.00
826.24	35911.00
826.68	35733.00
827.12	35505.00
827.56	34642.00
828.00	34861.00
828.44	35316.00
828.88	35776.00
829.32	36001.00
829.76	36095.00
830.20	36688.00
830.64	36105.00
831.08	35865.00
831.52	35345.00
831.96	35050.00
832.40	34587.00
832.84	35012.00
833.28	35348.00
833.72	35895.00
834.16	36670.00
834.60	37481.00
835.04	38114.00
835.48	38252.00
835.91	38367.00
836.35	38127.00
836.79	37658.00
837.23	37673.00
837.67	36970.00
838.11	36879.00
838.55	36990.00
838.99	36865.00
839.43	37306.00
839.87	37958.00
840.30	38196.00
840.74	38933.00
841.18	39224.00
841.62	39427.00
842.06	39315.00
842.50	39271.00
842.94	38845.00
843.38	38131.00
843.81	37536.00
844.25	36953.00
844.69	36919.00
845.13	36633.00
845.57	36945.00
846.01	37097.00
846.45	37534.00
846.88	37833.00
847.32	38458.00
847.76	38786.00
848.20	39016.00
848.64	38478.00
849.08	37882.00
849.51	37655.00
849.95	36793.00
850.39	36797.00
850.83	37333.00
851.27	37106.00
851.70	36424.00
852.14	36388.00
852.58	35657.00
853.02	34438.00
853.46	33582.00
853.89	33490.00
854.33	33483.00
854.77	34808.00
855.21	37307.00
855.65	38115.00
856.08	38768.00
856.52	38895.00
856.96	38616.00
857.40	37767.00
857.83	37284.00
858.27	36409.00
858.71	36038.00
859.15	35933.00
859.58	36126.00
860.02	36356.00
860.46	36917.00
860.89	37861.00
861.33	38127.00
861.77	38489.00
862.21	38805.00
862.64	38892.00
863.08	38740.00
863.52	38275.00
863.95	37580.00
864.39	37056.00
864.83	35576.00
865.27	34121.00
865.70	33637.00
866.14	33018.00
866.58	33186.00
867.01	34717.00
867.45	35984.00
867.89	36806.00
868.32	37553.00
868.76	37969.00
869.20	38024.00
869.63	38179.00
870.07	37437.00
870.51	36647.00
870.94	35950.00
871.38	35140.00
871.82	34585.00
872.25	34497.00
872.69	34377.00
873.13	34628.00
873.56	35021.00
874.00	35497.00
874.43	36032.00
874.87	36666.00
875.31	36899.00
875.74	36970.00
876.18	37397.00
876.61	37180.00
877.05	36893.00
877.49	36384.00
877.92	35876.00
878.36	35361.00
878.79	34828.00
879.23	33988.00
879.67	33434.00
880.10	33566.00
880.54	33715.00
880.97	33961.00
881.41	35082.00
881.84	35715.00
882.28	36570.00
882.72	36905.00
883.15	37566.00
883.59	37627.00
884.02	37421.00
884.46	36945.00
884.89	36468.00
885.33	35652.00
885.76	34716.00
886.20	34072.00
886.63	33658.00
887.07	33210.00
887.50	33218.00
887.94	33642.00
888.37	33672.00
888.81	34540.00
889.24	34525.00
889.68	35182.00
890.11	35653.00
890.55	35946.00
890.98	36162.00
891.42	36284.00
891.85	36069.00
892.29	35527.00
892.72	34583.00
893.16	33395.00
893.59	32769.00
894.03	31599.00
894.46	30744.00
894.90	29684.00
895.33	28442.00
895.77	28386.00
896.20	28252.00
896.63	28422.00
897.07	28599.00
897.50	28303.00
897.94	28467.00
898.37	29675.00
898.81	27598.00
899.24	27708.00
899.68	29137.00
900.11	28232.00
900.54	27898.00
900.98	27433.00
901.41	27181.00
901.85	27425.00
902.28	27554.00
902.71	27873.00
903.15	28879.00
903.58	29899.00
904.02	29733.00
904.45	29808.00
904.88	29691.00
905.32	29232.00
905.75	29173.00
906.18	28445.00
906.62	28413.00
907.05	27860.00
907.48	27927.00
907.92	27493.00
908.35	27634.00
908.79	26983.00
909.22	26840.00
909.65	26524.00
910.09	26368.00
910.52	26052.00
910.95	26204.00
911.38	26213.00
911.82	25256.00
912.25	25876.00
912.68	26433.00
913.12	26238.00
913.55	26607.00
913.98	27429.00
914.42	28562.00
914.85	28698.00
915.28	27186.00
915.72	27132.00
916.15	26733.00
916.58	26834.00
917.01	25925.00
917.45	25225.00
917.88	26166.00
918.31	26343.00
918.74	27507.00
919.18	27647.00
919.61	27648.00
920.04	28323.00
920.47	28424.00
920.91	28723.00
921.34	28599.00
921.77	28857.00
922.20	29480.00
922.64	29180.00
923.07	29059.00
923.50	28600.00
923.93	28193.00
924.37	27678.00
924.80	27318.00
925.23	26965.00
925.66	26147.00
926.09	24875.00
926.53	24363.00
926.96	23250.00
927.39	22438.00
927.82	21325.00
928.25	20448.00
928.69	20071.00
929.12	19743.00
929.55	18666.00
929.98	17984.00
930.41	16911.00
930.84	16127.00
931.28	14932.00
931.71	13774.00
932.14	12407.00
932.57	11847.00
933.00	11381.00
933.43	10873.00
933.86	10227.00
934.30	9797.00
934.73	11048.00
935.16	10599.00
935.59	9784.00
936.02	10487.00
936.45	10105.00
936.88	10221.00
937.31	11182.00
937.75	11733.00
938.18	12376.00
938.61	12863.00
939.04	13548.00
939.47	13158.00
939.90	12403.00
940.33	11962.00
940.76	11069.00
941.19	10519.00
941.62	10393.00
942.05	10187.00
942.48	9139.00
942.91	9258.00
943.35	9898.00
943.78	9227.00
944.21	9100.00
944.64	9895.00
945.07	10100.00
945.50	9903.00
945.93	10155.00
946.36	10463.00
946.79	10801.00
947.22	11394.00
947.65	11081.00
948.08	10678.00
948.51	11427.00
948.94	11761.00
949.37	11155.00
949.80	10625.00
950.23	11020.00
950.66	11453.00
951.09	11300.00
951.52	10804.00
951.95	10975.00
952.38	11412.00
952.81	12099.00
953.24	12736.00
953.67	12825.00
954.10	12743.00
954.53	13309.00
954.96	13145.00
955.39	13457.00
955.82	14186.00
956.25	13703.00
956.68	13983.00
957.11	14221.00
957.53	13819.00
957.96	13712.00
958.39	13418.00
958.82	12913.00
959.25	13397.00
959.68	13983.00
960.11	14091.00
960.54	14391.00
960.97	15215.00
961.40	15525.00
961.83	15451.00
962.26	15643.00
962.68	17042.00
963.11	17233.00
963.54	17483.00
963.97	17626.00
964.40	17420.00
964.83	18009.00
965.26	17941.00
965.69	17817.00
966.11	17634.00
966.54	17830.00
966.97	18657.00
967.40	18775.00
967.83	18838.00
968.26	18730.00
968.69	19032.00
969.11	19179.00
969.54	18896.00
969.97	19099.00
970.40	19524.00
970.83	19444.00
971.26	19669.00
971.68	19744.00
972.11	19829.00
972.54	20130.00
972.97	19795.00
973.40	19678.00
973.82	19592.00
974.25	19602.00
974.68	19185.00
975.11	19057.00
975.54	18674.00
975.96	18309.00
976.39	18462.00
976.82	18662.00
977.25	18261.00
977.67	18237.00
978.10	18385.00
978.53	18639.00
978.96	19055.00
979.38	19495.00
979.81	19735.00
980.24	20425.00
980.67	20727.00
981.09	21046.00
981.52	21291.00
981.95	21231.00
982.38	21402.00
982.80	21513.00
983.23	21705.00
983.66	21957.00
984.08	21679.00
984.51	21451.00
984.94	21243.00
985.37	20961.00
985.79	20545.00
986.22	20049.00
986.65	19994.00
987.07	19735.00
987.50	19748.00
987.93	19753.00
988.35	19807.00
988.78	20007.00
989.21	20080.00
989.63	20318.00
990.06	20699.00
990.49	21204.00
990.91	21576.00
991.34	21635.00
991.77	21725.00
992.19	21650.00
992.62	21676.00
993.05	21506.00
993.47	21267.00
993.90	20981.00
994.32	20735.00
994.75	20368.00
995.18	19967.00
995.60	19700.00
996.03	19416.00
996.45	19311.00
996.88	19120.00
997.31	19244.00
997.73	18955.00
998.16	19055.00
998.58	19218.00
999.01	19507.00
999.44	19477.00
999.86	19899.00
1000.29	19903.00
1000.71	20130.00
1001.14	20231.00
1001.56	20118.00
1001.99	20055.00
1002.41	19621.00
1002.84	19363.00
1003.27	18997.00
1003.69	18751.00
1004.12	18092.00
1004.54	17919.00
1004.97	17558.00
1005.39	17456.00
1005.82	17390.00
1006.24	17344.00
1006.67	17106.00
1007.09	17149.00
1007.52	17071.00
1007.94	17194.00
1008.37	17349.00
1008.79	17423.00
1009.22	17453.00
1009.64	17314.00
1010.07	17565.00
1010.49	17528.00
1010.92	17637.00
1011.34	17693.00
1011.77	17470.00
1012.19	17543.00
1012.62	17370.00
1013.04	17202.00
1013.46	16766.00
1013.89	16419.00
1014.31	16262.00
1014.74	15913.00
1015.16	15725.00
1015.59	15627.00
1016.01	15623.00
1016.44	15526.00
1016.86	16384.00
1017.28	15673.00
1017.71	15803.00
1018.13	16187.00
1018.56	16374.00
1018.98	16326.00
1019.40	16393.00
1019.83	16643.00
1020.25	16631.00
1020.68	16668.00
1021.10	16862.00
1021.52	16961.00
1021.95	17175.00
1022.37	17149.00
1022.79	17050.00
1023.22	16867.00
1023.64	16687.00
1024.07	16367.00
1024.49	16206.00
1024.91	15986.00
1025.34	15793.00
1025.76	15838.00
1026.18	15587.00
1026.61	15520.00
1027.03	15539.00
1027.45	15501.00
1027.88	15524.00
1028.30	15611.00
1028.72	15626.00
1029.15	15831.00
1029.57	15943.00
1029.99	16055.00
1030.41	15883.00
1030.84	15799.00
1031.26	15767.00
1031.68	15666.00
1032.11	15488.00
1032.53	15375.00
1032.95	15169.00
1033.37	15086.00
1033.80	14797.00
1034.22	14535.00
1034.64	14456.00
1035.06	13975.00
1035.49	13800.00
1035.91	13687.00
1036.33	13539.00
1036.75	13443.00
1037.18	13430.00
1037.60	13391.00
1038.02	13358.00
1038.44	13387.00
1038.87	13471.00
1039.29	13314.00
1039.71	13400.00
1040.13	13456.00
1040.55	13443.00
1040.98	13392.00
1041.40	13366.00
1041.82	13225.00
1042.24	13027.00
1042.66	12992.00
1043.09	12711.00
1043.51	12653.00
1043.93	12342.00
1044.35	12236.00
1044.77	11989.00
1045.20	12071.00
1045.62	11670.00
1046.04	11491.00
1046.46	11494.00
1046.88	11297.00
1047.30	11335.00
1047.72	11117.00
1048.15	11160.00
1048.57	11025.00
1048.99	11024.00
1049.41	11049.00
1049.83	11037.00
1050.25	10892.00
1050.67	10918.00
1051.09	10821.00
1051.52	10861.00
1051.94	10617.00
1052.36	10763.00
1052.78	10630.00
1053.20	10649.00
1053.62	10499.00
1054.04	10500.00
1054.46	10368.00
1054.88	10303.00
1055.30	10157.00
1055.72	10011.00
1056.14	9976.00
1056.57	9883.00
1056.99	9672.00
1057.41	9476.00
1057.83	9371.00
1058.25	9256.00
1058.67	9261.00
1059.09	9181.00
1059.51	9033.00
1059.93	8930.00
1060.35	8831.00
1060.77	8823.00
1061.19	8795.00
1061.61	8753.00
1062.03	8728.00
1062.45	8658.00
1062.87	8706.00
1063.29	8535.00
1063.71	8504.00
1064.13	8501.00
1064.55	8336.00
1064.97	8417.00
1065.39	8276.00
1065.81	8270.00
1066.23	8211.00
1066.65	8199.00
1067.07	8158.00
1067.49	7960.00
1067.91	7785.00
1068.33	7715.00
1068.75	7789.00
1069.17	7771.00
1069.59	7658.00
1070.00	7525.00
1070.42	7467.00
1070.84	7406.00
1071.26	7337.00
1071.68	7255.00
1072.10	7281.00
1072.52	7260.00
1072.94	7187.00
1073.36	7155.00
1073.78	7080.00
1074.20	7223.00
1074.62	7195.00
1075.03	7072.00
1075.45	7123.00
1075.87	7056.00
1076.29	7084.00
1076.71	7095.00
1077.13	7053.00
1077.55	6904.00
1077.97	6850.00
1078.38	6827.00
1078.80	6714.00
1079.22	6717.00
1079.64	6491.00
1080.06	6501.00
1080.48	6501.00
1080.89	6357.00
1081.31	6332.00
1081.73	6338.00
1082.15	6236.00
1082.57	6251.00
1082.99	6159.00
1083.40	6128.00
1083.82	6223.00
1084.24	6086.00
1084.66	6037.00
1085.08	6055.00
1085.49	6046.00
1085.91	5977.00
1086.33	7352.00
1086.75	6029.00
1087.17	5986.00
1087.58	5947.00
1088.00	5876.00
1088.42	5928.00
1088.84	5846.00
1089.25	5814.00
1089.67	5762.00
1090.09	5685.00
1090.51	5570.00
1090.92	5594.00
1091.34	5455.00
1091.76	5475.00
1092.18	5362.00
1092.59	5295.00
1093.01	5264.00
1093.43	5276.00
1093.84	5247.00
1094.26	5197.00
1094.68	5138.00
1095.10	5119.00
1095.51	5129.00
1095.93	5051.00
1096.35	5046.00
1096.76	5054.00
1097.18	5063.00
1097.60	4967.00
1098.01	4925.00
1098.43	4925.00
1098.85	4901.00
1099.26	4834.00
1099.68	4822.00
1100.10	4721.00
1100.51	4686.00
1100.93	4620.00
1101.35	4647.00
1101.76	4572.00
1102.18	5019.00
1102.60	4559.00
1103.01	4351.00
1103.43	4433.00
1103.84	4435.00
1104.26	4397.00
1104.68	4429.00
1105.09	4346.00
1105.51	4343.00
1105.92	4355.00
1106.34	4241.00
1106.76	4238.00
1107.17	4213.00
1107.59	4129.00
1108.00	4089.00
1108.42	4079.00
1108.83	4037.00
1109.25	4062.00
1109.67	3949.00
1110.08	3955.00
1110.50	3933.00
1110.91	3917.00
1111.33	3831.00
1111.74	3835.00
1112.16	3838.00
1112.57	3799.00
1112.99	3729.00
1113.41	3726.00
1113.82	3641.00
1114.24	3625.00
1114.65	3532.00
1115.07	3462.00
1115.48	3337.00
1115.90	2185.00
1116.31	2212.00
1116.73	2206.00
1117.14	2219.00
>>>>>End Processed Spectral Data<<<<<
