SpectraSuite Data File
++++++++++++++++++++++++++++++++++++
Date: Tue May 29 13:11:01 EEST 2018
User: CanSEE
Dark Spectrum Present: No
Reference Spectrum Present: No
Number of Sampled Component Spectra: 1
Spectrometers: MAYP11278
Integration Time (usec): 230000 (MAYP11278)
Spectra Averaged: 1 (MAYP11278)
Boxcar Smoothing: 0 (MAYP11278)
Correct for Electrical Dark: No (MAYP11278)
Strobe/Lamp Enabled: No (MAYP11278)
Correct for Detector Non-linearity: No (MAYP11278)
Correct for Stray Light: No (MAYP11278)
Number of Pixels in Processed Spectrum: 2068
>>>>>Begin Processed Spectral Data<<<<<
187.82	2334.00
188.30	2230.00
188.78	2211.00
189.26	2207.00
189.73	3211.00
190.21	3315.00
190.69	3437.00
191.17	3427.00
191.64	3478.00
192.12	3399.00
192.60	3392.00
193.07	3386.00
193.55	3440.00
194.03	3413.00
194.51	3417.00
194.98	3429.00
195.46	3434.00
195.94	3392.00
196.42	3440.00
196.89	3553.00
197.37	3452.00
197.85	3379.00
198.32	3403.00
198.80	3393.00
199.28	3422.00
199.76	3471.00
200.23	3399.00
200.71	3429.00
201.19	3459.00
201.66	3440.00
202.14	3490.00
202.62	3425.00
203.09	3433.00
203.57	3379.00
204.05	3463.00
204.53	3459.00
205.00	3411.00
205.48	3397.00
205.96	3488.00
206.43	3363.00
206.91	3447.00
207.39	3512.00
207.86	3428.00
208.34	3456.00
208.82	3445.00
209.29	3480.00
209.77	3445.00
210.25	3405.00
210.72	3430.00
211.20	3489.00
211.68	3407.00
212.15	3419.00
212.63	3513.00
213.11	3460.00
213.58	3447.00
214.06	3528.00
214.53	3475.00
215.01	3509.00
215.49	3472.00
215.96	3444.00
216.44	3477.00
216.92	3464.00
217.39	3401.00
217.87	3439.00
218.35	3469.00
218.82	3381.00
219.30	3438.00
219.77	3459.00
220.25	3446.00
220.73	3561.00
221.20	3436.00
221.68	3476.00
222.15	3421.00
222.63	3468.00
223.11	3429.00
223.58	3487.00
224.06	3449.00
224.53	3422.00
225.01	3433.00
225.49	3449.00
225.96	3401.00
226.44	3492.00
226.91	3508.00
227.39	3431.00
227.87	3465.00
228.34	3480.00
228.82	3503.00
229.29	3424.00
229.77	3419.00
230.24	3441.00
230.72	3463.00
231.20	3523.00
231.67	3469.00
232.15	3447.00
232.62	3396.00
233.10	3412.00
233.57	3471.00
234.05	3586.00
234.53	3434.00
235.00	3433.00
235.48	3417.00
235.95	3489.00
236.43	3517.00
236.90	3509.00
237.38	3450.00
237.85	3481.00
238.33	3437.00
238.80	3463.00
239.28	3475.00
239.75	3385.00
240.23	3464.00
240.71	3509.00
241.18	3482.00
241.66	3413.00
242.13	3477.00
242.61	3510.00
243.08	3434.00
243.56	3389.00
244.03	3500.00
244.51	3559.00
244.98	3443.00
245.46	3507.00
245.93	5252.00
246.41	3400.00
246.88	3450.00
247.36	3421.00
247.83	3476.00
248.31	3470.00
248.78	3420.00
249.26	3481.00
249.73	3516.00
250.21	3468.00
250.68	3539.00
251.16	3437.00
251.63	3555.00
252.10	3521.00
252.58	3458.00
253.05	3493.00
253.53	3443.00
254.00	3440.00
254.48	3489.00
254.95	3487.00
255.43	3499.00
255.90	3459.00
256.38	3522.00
256.85	3479.00
257.33	3503.00
257.80	3628.00
258.27	3509.00
258.75	3465.00
259.22	3424.00
259.70	3499.00
260.17	3524.00
260.65	3483.00
261.12	3449.00
261.59	3559.00
262.07	3450.00
262.54	3483.00
263.02	3483.00
263.49	3438.00
263.97	3526.00
264.44	3523.00
264.91	3476.00
265.39	3464.00
265.86	3498.00
266.34	3479.00
266.81	3503.00
267.28	3454.00
267.76	3466.00
268.23	3480.00
268.71	3394.00
269.18	3417.00
269.65	3404.00
270.13	3476.00
270.60	3519.00
271.08	3460.00
271.55	3482.00
272.02	3425.00
272.50	3439.00
272.97	3397.00
273.44	3478.00
273.92	3592.00
274.39	3500.00
274.87	3496.00
275.34	3422.00
275.81	3457.00
276.29	3443.00
276.76	3446.00
277.23	3361.00
277.71	3370.00
278.18	3323.00
278.65	3513.00
279.13	3335.00
279.60	3433.00
280.07	3665.00
280.55	3708.00
281.02	3732.00
281.50	3547.00
281.97	3600.00
282.44	3540.00
282.91	3497.00
283.39	3530.00
283.86	3467.00
284.33	3459.00
284.81	3535.00
285.28	3511.00
285.75	3499.00
286.23	3468.00
286.70	3462.00
287.17	3527.00
287.65	3582.00
288.12	3442.00
288.59	3476.00
289.07	3427.00
289.54	3527.00
290.01	3483.00
290.48	3462.00
290.96	3485.00
291.43	3487.00
291.90	3584.00
292.38	3419.00
292.85	3552.00
293.32	3459.00
293.79	3532.00
294.27	3536.00
294.74	3463.00
295.21	3469.00
295.69	3485.00
296.16	3553.00
296.63	3519.00
297.10	3512.00
297.58	3513.00
298.05	3536.00
298.52	3482.00
298.99	3559.00
299.47	3471.00
299.94	3520.00
300.41	3477.00
300.88	3483.00
301.36	3493.00
301.83	3518.00
302.30	3467.00
302.77	3494.00
303.25	3495.00
303.72	3445.00
304.19	3471.00
304.66	3434.00
305.13	3499.00
305.61	3505.00
306.08	3521.00
306.55	3525.00
307.02	3471.00
307.49	3462.00
307.97	3485.00
308.44	3458.00
308.91	3553.00
309.38	3548.00
309.86	3491.00
310.33	3550.00
310.80	3513.00
311.27	3505.00
311.74	3507.00
312.21	3505.00
312.69	3585.00
313.16	3516.00
313.63	3469.00
314.10	3542.00
314.57	3455.00
315.05	3447.00
315.52	3553.00
315.99	3513.00
316.46	3504.00
316.93	3551.00
317.40	3509.00
317.88	3631.00
318.35	3510.00
318.82	3490.00
319.29	3469.00
319.76	3545.00
320.23	3607.00
320.70	3558.00
321.18	3531.00
321.65	3433.00
322.12	3463.00
322.59	3635.00
323.06	3508.00
323.53	3616.00
324.00	3481.00
324.48	3545.00
324.95	3489.00
325.42	3476.00
325.89	3546.00
326.36	3484.00
326.83	3562.00
327.30	3541.00
327.77	3525.00
328.24	3545.00
328.72	3537.00
329.19	3473.00
329.66	3518.00
330.13	3489.00
330.60	3529.00
331.07	3584.00
331.54	3623.00
332.01	3515.00
332.48	3661.00
332.95	3559.00
333.43	3535.00
333.90	3566.00
334.37	3539.00
334.84	3515.00
335.31	3685.00
335.78	3495.00
336.25	3527.00
336.72	3521.00
337.19	3513.00
337.66	3505.00
338.13	3521.00
338.60	3571.00
339.07	3589.00
339.54	3491.00
340.01	3462.00
340.49	3474.00
340.96	3566.00
341.43	3575.00
341.90	3476.00
342.37	3556.00
342.84	3562.00
343.31	3550.00
343.78	3499.00
344.25	3524.00
344.72	3482.00
345.19	3534.00
345.66	3567.00
346.13	3486.00
346.60	3490.00
347.07	3613.00
347.54	3492.00
348.01	3587.00
348.48	3529.00
348.95	3476.00
349.42	3517.00
349.89	3547.00
350.36	3543.00
350.83	3521.00
351.30	3531.00
351.77	3593.00
352.24	3527.00
352.71	3487.00
353.18	3542.00
353.65	3540.00
354.12	3554.00
354.59	3562.00
355.06	3546.00
355.53	3611.00
356.00	3476.00
356.47	3649.00
356.94	3487.00
357.41	3656.00
357.88	3579.00
358.35	3478.00
358.82	3504.00
359.28	3535.00
359.75	3502.00
360.22	3567.00
360.69	3627.00
361.16	3524.00
361.63	3513.00
362.10	3561.00
362.57	3495.00
363.04	3534.00
363.51	3617.00
363.98	3572.00
364.45	3515.00
364.92	3526.00
365.39	3509.00
365.86	3505.00
366.32	3569.00
366.79	3522.00
367.26	4391.00
367.73	3881.00
368.20	3473.00
368.67	3579.00
369.14	3495.00
369.61	3559.00
370.08	3527.00
370.55	3508.00
371.02	4320.00
371.48	3552.00
371.95	3535.00
372.42	3483.00
372.89	3550.00
373.36	3553.00
373.83	3465.00
374.30	3518.00
374.77	3582.00
375.23	3454.00
375.70	3601.00
376.17	3529.00
376.64	3464.00
377.11	3500.00
377.58	3533.00
378.05	3540.00
378.51	3588.00
378.98	3517.00
379.45	3499.00
379.92	3561.00
380.39	3663.00
380.86	3536.00
381.33	3572.00
381.79	3566.00
382.26	3487.00
382.73	3543.00
383.20	3503.00
383.67	3579.00
384.14	3530.00
384.60	3756.00
385.07	3496.00
385.54	3543.00
386.01	3526.00
386.48	3616.00
386.94	3448.00
387.41	3462.00
387.88	3547.00
388.35	3507.00
388.82	3569.00
389.28	3545.00
389.75	3542.00
390.22	3540.00
390.69	3539.00
391.16	3535.00
391.62	3550.00
392.09	3564.00
392.56	3466.00
393.03	3503.00
393.50	3627.00
393.96	3567.00
394.43	3572.00
394.90	3504.00
395.37	3558.00
395.83	3764.00
396.30	3469.00
396.77	3577.00
397.24	3567.00
397.70	3489.00
398.17	3533.00
398.64	3536.00
399.11	3490.00
399.57	3576.00
400.04	3461.00
400.51	3565.00
400.98	3520.00
401.44	3603.00
401.91	3554.00
402.38	3565.00
402.84	3545.00
403.31	3589.00
403.78	3543.00
404.25	3607.00
404.71	3643.00
405.18	3563.00
405.65	3488.00
406.12	3569.00
406.58	3565.00
407.05	3611.00
407.52	3514.00
407.98	4069.00
408.45	3546.00
408.92	3511.00
409.38	3603.00
409.85	3488.00
410.32	3619.00
410.78	3517.00
411.25	3592.00
411.72	3547.00
412.18	3486.00
412.65	3604.00
413.12	3559.00
413.59	3595.00
414.05	3595.00
414.52	3615.00
414.98	3557.00
415.45	3660.00
415.92	3650.00
416.38	3593.00
416.85	3649.00
417.32	3575.00
417.78	3584.00
418.25	3635.00
418.72	3589.00
419.18	3632.00
419.65	3556.00
420.12	3635.00
420.58	3558.00
421.05	3660.00
421.51	3607.00
421.98	3642.00
422.45	3571.00
422.91	3615.00
423.38	3659.00
423.85	3669.00
424.31	3591.00
424.78	3668.00
425.24	3653.00
425.71	3695.00
426.18	3595.00
426.64	3693.00
427.11	3655.00
427.57	3658.00
428.04	3595.00
428.51	3671.00
428.97	3648.00
429.44	3639.00
429.90	3650.00
430.37	3736.00
430.83	3588.00
431.30	3628.00
431.77	3726.00
432.23	3744.00
432.70	3645.00
433.16	3659.00
433.63	3689.00
434.09	3620.00
434.56	3740.00
435.03	3616.00
435.49	3712.00
435.96	3673.00
436.42	3623.00
436.89	3721.00
437.35	3733.00
437.82	3703.00
438.28	3650.00
438.75	3712.00
439.21	3869.00
439.68	3706.00
440.14	3734.00
440.61	3751.00
441.07	3713.00
441.54	3689.00
442.00	3876.00
442.47	3683.00
442.94	3747.00
443.40	3721.00
443.87	3693.00
444.33	3803.00
444.80	3793.00
445.26	3731.00
445.73	3744.00
446.19	3758.00
446.65	3756.00
447.12	3748.00
447.58	3715.00
448.05	3737.00
448.51	3797.00
448.98	3790.00
449.44	3753.00
449.91	3741.00
450.37	3778.00
450.84	3802.00
451.30	3769.00
451.77	3843.00
452.23	3741.00
452.70	3789.00
453.16	3743.00
453.62	3782.00
454.09	3756.00
454.55	3791.00
455.02	3736.00
455.48	3725.00
455.95	3755.00
456.41	3760.00
456.88	3845.00
457.34	3753.00
457.80	3733.00
458.27	3710.00
458.73	3758.00
459.20	3740.00
459.66	3784.00
460.13	3758.00
460.59	3730.00
461.05	3786.00
461.52	3816.00
461.98	3699.00
462.45	3667.00
462.91	3801.00
463.37	3698.00
463.84	3718.00
464.30	3737.00
464.76	3685.00
465.23	3699.00
465.69	3719.00
466.16	3721.00
466.62	3708.00
467.08	3689.00
467.55	3665.00
468.01	3685.00
468.48	3695.00
468.94	3689.00
469.40	3632.00
469.87	3662.00
470.33	3681.00
470.79	3644.00
471.26	3636.00
471.72	3629.00
472.18	3675.00
472.65	3664.00
473.11	3722.00
473.57	3631.00
474.04	3658.00
474.50	3646.00
474.96	3640.00
475.43	3615.00
475.89	3687.00
476.35	3729.00
476.82	3652.00
477.28	3627.00
477.74	3733.00
478.21	3699.00
478.67	3704.00
479.13	3637.00
479.59	3736.00
480.06	3726.00
480.52	3695.00
480.98	3635.00
481.45	3649.00
481.91	3655.00
482.37	3601.00
482.84	3621.00
483.30	3589.00
483.76	3650.00
484.22	3698.00
484.69	3655.00
485.15	3618.00
485.61	3501.00
486.07	3580.00
486.54	3521.00
487.00	3667.00
487.46	3594.00
487.92	3571.00
488.39	3600.00
488.85	3672.00
489.31	3665.00
489.77	3703.00
490.24	3583.00
490.70	3631.00
491.16	3619.00
491.62	3602.00
492.09	3573.00
492.55	3721.00
493.01	3671.00
493.47	3646.00
493.94	3658.00
494.40	3695.00
494.86	3648.00
495.32	3604.00
495.78	3689.00
496.25	3645.00
496.71	3693.00
497.17	3813.00
497.63	3718.00
498.09	3673.00
498.56	3681.00
499.02	3669.00
499.48	3844.00
499.94	3731.00
500.40	3678.00
500.87	3697.00
501.33	3703.00
501.79	3741.00
502.25	3734.00
502.71	4065.00
503.17	3771.00
503.64	3789.00
504.10	3766.00
504.56	3816.00
505.02	3828.00
505.48	3810.00
505.94	3899.00
506.40	3881.00
506.87	3849.00
507.33	3918.00
507.79	3885.00
508.25	3861.00
508.71	3881.00
509.17	3880.00
509.63	3931.00
510.10	3951.00
510.56	3957.00
511.02	4065.00
511.48	4063.00
511.94	4009.00
512.40	3980.00
512.86	4015.00
513.32	4116.00
513.78	4040.00
514.25	4139.00
514.71	4806.00
515.17	4090.00
515.63	4221.00
516.09	4210.00
516.55	4145.00
517.01	4285.00
517.47	4245.00
517.93	4302.00
518.39	4406.00
518.85	4358.00
519.32	4400.00
519.78	4385.00
520.24	4476.00
520.70	4539.00
521.16	4576.00
521.62	4639.00
522.08	4626.00
522.54	4669.00
523.00	4718.00
523.46	4784.00
523.92	4801.00
524.38	4949.00
524.84	4834.00
525.30	5019.00
525.76	4915.00
526.22	4841.00
526.68	4801.00
527.14	4947.00
527.60	4959.00
528.06	5087.00
528.52	5090.00
528.98	5127.00
529.44	5141.00
529.90	5196.00
530.36	5239.00
530.82	5254.00
531.28	5321.00
531.74	5341.00
532.20	5239.00
532.66	5213.00
533.12	5379.00
533.58	5301.00
534.04	5276.00
534.50	5388.00
534.96	5394.00
535.42	5471.00
535.88	5494.00
536.34	5477.00
536.80	5345.00
537.26	5507.00
537.72	5489.00
538.18	5545.00
538.64	5532.00
539.10	5526.00
539.56	5715.00
540.02	5420.00
540.48	5512.00
540.94	5497.00
541.40	5495.00
541.86	5580.00
542.32	5610.00
542.78	5517.00
543.24	5680.00
543.69	5584.00
544.15	5761.00
544.61	5682.00
545.07	5661.00
545.53	5642.00
545.99	5661.00
546.45	5640.00
546.91	5749.00
547.37	5681.00
547.83	5709.00
548.29	5698.00
548.74	5711.00
549.20	5676.00
549.66	5827.00
550.12	5700.00
550.58	5711.00
551.04	5739.00
551.50	5780.00
551.96	5848.00
552.42	5796.00
552.87	5774.00
553.33	5727.00
553.79	5821.00
554.25	5733.00
554.71	5790.00
555.17	5826.00
555.63	5835.00
556.08	5766.00
556.54	5796.00
557.00	5673.00
557.46	5743.00
557.92	5818.00
558.38	5633.00
558.83	5593.00
559.29	5617.00
559.75	5599.00
560.21	5620.00
560.67	5710.00
561.13	5686.00
561.58	5535.00
562.04	5600.00
562.50	5605.00
562.96	5604.00
563.42	5596.00
563.87	5566.00
564.33	5549.00
564.79	5562.00
565.25	5496.00
565.71	5513.00
566.16	5473.00
566.62	5479.00
567.08	5390.00
567.54	5419.00
568.00	5386.00
568.45	5266.00
568.91	5333.00
569.37	5375.00
569.83	5235.00
570.28	5191.00
570.74	5205.00
571.20	5175.00
571.66	5195.00
572.11	5229.00
572.57	5211.00
573.03	5152.00
573.49	5150.00
573.94	5143.00
574.40	5127.00
574.86	5110.00
575.32	4977.00
575.77	5048.00
576.23	4903.00
576.69	5112.00
577.15	4997.00
577.60	4957.00
578.06	4902.00
578.52	5030.00
578.97	4949.00
579.43	4845.00
579.89	4988.00
580.34	4901.00
580.80	4850.00
581.26	4875.00
581.72	4927.00
582.17	4922.00
582.63	4841.00
583.09	4850.00
583.54	4859.00
584.00	4895.00
584.46	4909.00
584.91	4798.00
585.37	4884.00
585.83	4748.00
586.28	4735.00
586.74	4755.00
587.20	4759.00
587.65	4745.00
588.11	4686.00
588.57	4628.00
589.02	4512.00
589.48	4513.00
589.94	4606.00
590.39	4681.00
590.85	4632.00
591.30	4669.00
591.76	4717.00
592.22	4586.00
592.67	4639.00
593.13	4646.00
593.59	4680.00
594.04	4655.00
594.50	4596.00
594.95	4613.00
595.41	4597.00
595.87	4530.00
596.32	4694.00
596.78	4697.00
597.23	4628.00
597.69	4589.00
598.15	4550.00
598.60	4580.00
599.06	4700.00
599.51	4543.00
599.97	4567.00
600.43	4602.00
600.88	4578.00
601.34	4545.00
601.79	4519.00
602.25	4669.00
602.70	4545.00
603.16	4613.00
603.61	4519.00
604.07	4506.00
604.53	4601.00
604.98	4550.00
605.44	4585.00
605.89	4528.00
606.35	4427.00
606.80	4450.00
607.26	4461.00
607.71	4463.00
608.17	4499.00
608.62	4424.00
609.08	4560.00
609.53	4479.00
609.99	4430.00
610.44	4426.00
610.90	4386.00
611.35	4318.00
611.81	4468.00
612.26	4364.00
612.72	4406.00
613.17	4508.00
613.63	4245.00
614.08	4272.00
614.54	4259.00
614.99	4278.00
615.45	4252.00
615.90	4275.00
616.36	4188.00
616.81	4224.00
617.27	4254.00
617.72	4257.00
618.18	4261.00
618.63	4223.00
619.09	4218.00
619.54	4260.00
619.99	4229.00
620.45	4304.00
620.90	4319.00
621.36	4185.00
621.81	4245.00
622.27	4281.00
622.72	4218.00
623.18	4190.00
623.63	4199.00
624.08	4199.00
624.54	4144.00
624.99	4138.00
625.45	4155.00
625.90	4119.00
626.35	4176.00
626.81	4151.00
627.26	4158.00
627.72	4175.00
628.17	4155.00
628.62	4079.00
629.08	4164.00
629.53	4147.00
629.99	4081.00
630.44	4126.00
630.89	4155.00
631.35	4189.00
631.80	4167.00
632.26	4255.00
632.71	4091.00
633.16	4141.00
633.62	4105.00
634.07	4169.00
634.52	4092.00
634.98	4098.00
635.43	4113.00
635.88	4101.00
636.34	4074.00
636.79	4091.00
637.24	4081.00
637.70	4111.00
638.15	4105.00
638.60	4125.00
639.06	4083.00
639.51	4053.00
639.96	3999.00
640.42	4072.00
640.87	4120.00
641.32	4013.00
641.78	3965.00
642.23	3973.00
642.68	3956.00
643.14	3957.00
643.59	3992.00
644.04	3893.00
644.49	3909.00
644.95	3922.00
645.40	3883.00
645.85	3904.00
646.31	3870.00
646.76	3916.00
647.21	3885.00
647.66	3902.00
648.12	3891.00
648.57	3814.00
649.02	3923.00
649.47	3825.00
649.93	4007.00
650.38	3814.00
650.83	3829.00
651.28	3787.00
651.74	3832.00
652.19	3807.00
652.64	3807.00
653.09	3782.00
653.55	3741.00
654.00	3793.00
654.45	3817.00
654.90	3751.00
655.35	3661.00
655.81	3770.00
656.26	3641.00
656.71	3691.00
657.16	3763.00
657.62	3761.00
658.07	3697.00
658.52	3736.00
658.97	3738.00
659.42	3947.00
659.88	3655.00
660.33	3789.00
660.78	3694.00
661.23	3671.00
661.68	3710.00
662.13	3662.00
662.59	3600.00
663.04	3722.00
663.49	3652.00
663.94	3634.00
664.39	3647.00
664.84	3581.00
665.30	3669.00
665.75	3589.00
666.20	3622.00
666.65	3599.00
667.10	3739.00
667.55	3694.00
668.00	3573.00
668.46	3641.00
668.91	3535.00
669.36	3690.00
669.81	3491.00
670.26	3577.00
670.71	3639.00
671.16	3582.00
671.61	3664.00
672.06	3693.00
672.52	3543.00
672.97	3569.00
673.42	3610.00
673.87	3683.00
674.32	3545.00
674.77	3575.00
675.22	3515.00
675.67	3579.00
676.12	3598.00
676.57	3537.00
677.02	3518.00
677.47	3515.00
677.93	3678.00
678.38	3501.00
678.83	3521.00
679.28	3589.00
679.73	3487.00
680.18	3497.00
680.63	3563.00
681.08	3446.00
681.53	3509.00
681.98	3502.00
682.43	3596.00
682.88	3640.00
683.33	3581.00
683.78	3585.00
684.23	3634.00
684.68	3633.00
685.13	3606.00
685.58	3650.00
686.03	3596.00
686.48	3581.00
686.93	3562.00
687.38	3565.00
687.83	3648.00
688.28	3631.00
688.73	3815.00
689.18	3768.00
689.63	3639.00
690.08	3757.00
690.53	3767.00
690.98	3796.00
691.43	3879.00
691.88	3841.00
692.33	4009.00
692.78	4004.00
693.23	4072.00
693.68	4103.00
694.13	4113.00
694.58	4174.00
695.03	4415.00
695.48	4311.00
695.93	4351.00
696.38	4535.00
696.83	4551.00
697.28	4557.00
697.72	4638.00
698.17	4687.00
698.62	4776.00
699.07	4876.00
699.52	4811.00
699.97	4877.00
700.42	4983.00
700.87	5123.00
701.32	5247.00
701.77	5152.00
702.22	5316.00
702.67	5259.00
703.11	5377.00
703.56	5481.00
704.01	5532.00
704.46	5599.00
704.91	5765.00
705.36	5803.00
705.81	5827.00
706.26	5867.00
706.70	5951.00
707.15	6033.00
707.60	6116.00
708.05	6159.00
708.50	6223.00
708.95	6338.00
709.40	6395.00
709.84	6436.00
710.29	6497.00
710.74	6497.00
711.19	6567.00
711.64	6679.00
712.09	6719.00
712.53	6757.00
712.98	6917.00
713.43	6851.00
713.88	6959.00
714.33	6993.00
714.78	6932.00
715.22	6958.00
715.67	7019.00
716.12	6904.00
716.57	6799.00
717.02	6566.00
717.46	6447.00
717.91	6517.00
718.36	6491.00
718.81	6359.00
719.26	6378.00
719.70	6499.00
720.15	6646.00
720.60	6759.00
721.05	7122.00
721.49	7371.00
721.94	7487.00
722.39	7413.00
722.84	7294.00
723.28	7118.00
723.73	7096.00
724.18	7072.00
724.63	7209.00
725.07	7242.00
725.52	7286.00
725.97	7374.00
726.42	7417.00
726.86	7636.00
727.31	7509.00
727.76	7581.00
728.21	7632.00
728.65	7629.00
729.10	7666.00
729.55	7658.00
729.99	7885.00
730.44	7853.00
730.89	7937.00
731.33	8127.00
731.78	8240.00
732.23	8403.00
732.68	8591.00
733.12	8683.00
733.57	8777.00
734.02	8911.00
734.46	8941.00
734.91	8994.00
735.36	9000.00
735.80	9149.00
736.25	9065.00
736.70	9154.00
737.14	9251.00
737.59	9232.00
738.04	9303.00
738.48	9187.00
738.93	9282.00
739.37	9307.00
739.82	9517.00
740.27	9490.00
740.71	9466.00
741.16	9565.00
741.61	9584.00
742.05	9597.00
742.50	9594.00
742.94	9593.00
743.39	9771.00
743.84	9748.00
744.28	9725.00
744.73	9764.00
745.18	9865.00
745.62	9993.00
746.07	9988.00
746.51	9824.00
746.96	9879.00
747.40	9724.00
747.85	9886.00
748.30	9924.00
748.74	9756.00
749.19	9789.00
749.63	10050.00
750.08	9799.00
750.52	9847.00
750.97	9741.00
751.42	9946.00
751.86	9843.00
752.31	9831.00
752.75	9833.00
753.20	9779.00
753.64	9843.00
754.09	9808.00
754.53	9887.00
754.98	9817.00
755.42	9763.00
755.87	9887.00
756.31	9868.00
756.76	9713.00
757.20	9761.00
757.65	9679.00
758.09	9597.00
758.54	9293.00
758.98	8621.00
759.43	7253.00
759.87	5935.00
760.32	5134.00
760.76	5053.00
761.21	5583.00
761.65	6396.00
762.10	6501.00
762.54	6210.00
762.99	6021.00
763.43	6199.00
763.88	6360.00
764.32	6707.00
764.77	7126.00
765.21	7511.00
765.66	7769.00
766.10	8100.00
766.54	8414.00
766.99	8728.00
767.43	8907.00
767.88	9112.00
768.32	9195.00
768.77	9422.00
769.21	9575.00
769.66	9545.00
770.10	9551.00
770.54	9634.00
770.99	9634.00
771.43	9675.00
771.88	9701.00
772.32	9625.00
772.76	9537.00
773.21	9683.00
773.65	9658.00
774.10	9540.00
774.54	9538.00
774.98	9624.00
775.43	9647.00
775.87	9847.00
776.31	9700.00
776.76	9774.00
777.20	9731.00
777.65	9584.00
778.09	9675.00
778.53	9649.00
778.98	9599.00
779.42	9608.00
779.86	9549.00
780.31	9575.00
780.75	9527.00
781.19	9645.00
781.64	9537.00
782.08	9672.00
782.52	9535.00
782.97	9515.00
783.41	9473.00
783.85	9417.00
784.30	9422.00
784.74	9333.00
785.18	9450.00
785.63	9418.00
786.07	9367.00
786.51	9386.00
786.95	9434.00
787.40	9255.00
787.84	9275.00
788.28	9233.00
788.73	9334.00
789.17	9111.00
789.61	9037.00
790.05	9034.00
790.50	8973.00
790.94	8959.00
791.38	9053.00
791.82	8905.00
792.27	9043.00
792.71	9027.00
793.15	9261.00
793.59	9084.00
794.04	8943.00
794.48	8974.00
794.92	8951.00
795.36	8813.00
795.81	8795.00
796.25	8720.00
796.69	8737.00
797.13	8864.00
797.57	8815.00
798.02	8947.00
798.46	9034.00
798.90	8968.00
799.34	8827.00
799.79	8887.00
800.23	8731.00
800.67	8660.00
801.11	8698.00
801.55	8646.00
801.99	8584.00
802.44	8669.00
802.88	8643.00
803.32	8739.00
803.76	8685.00
804.20	8823.00
804.64	8709.00
805.09	8773.00
805.53	8891.00
805.97	8796.00
806.41	8634.00
806.85	8608.00
807.29	8519.00
807.74	8458.00
808.18	8447.00
808.62	8429.00
809.06	8455.00
809.50	8398.00
809.94	8491.00
810.38	8474.00
810.82	8474.00
811.27	8562.00
811.71	8256.00
812.15	8140.00
812.59	8025.00
813.03	8002.00
813.47	7741.00
813.91	7495.00
814.35	7490.00
814.79	7464.00
815.23	7394.00
815.67	7257.00
816.12	7299.00
816.56	7292.00
817.00	7367.00
817.44	7394.00
817.88	7511.00
818.32	7334.00
818.76	7398.00
819.20	7368.00
819.64	7421.00
820.08	7499.00
820.52	7617.00
820.96	7701.00
821.40	7579.00
821.84	7472.00
822.28	7150.00
822.72	7056.00
823.16	7051.00
823.60	7289.00
824.04	7749.00
824.48	7719.00
824.92	7801.00
825.36	7741.00
825.80	7733.00
826.24	7610.00
826.68	7579.00
827.12	7557.00
827.56	7533.00
828.00	7527.00
828.44	7552.00
828.88	7618.00
829.32	7603.00
829.76	7694.00
830.20	7804.00
830.64	7626.00
831.08	7654.00
831.52	7635.00
831.96	7528.00
832.40	7380.00
832.84	7463.00
833.28	7504.00
833.72	7692.00
834.16	7747.00
834.60	7871.00
835.04	7903.00
835.48	8102.00
835.91	7961.00
836.35	7983.00
836.79	7939.00
837.23	7926.00
837.67	7784.00
838.11	7692.00
838.55	7850.00
838.99	7720.00
839.43	7904.00
839.87	8008.00
840.30	7979.00
840.74	8052.00
841.18	8007.00
841.62	8092.00
842.06	8125.00
842.50	8023.00
842.94	8089.00
843.38	7959.00
843.81	7808.00
844.25	7829.00
844.69	7707.00
845.13	7803.00
845.57	7842.00
846.01	7865.00
846.45	7884.00
846.88	7881.00
847.32	7889.00
847.76	8021.00
848.20	8019.00
848.64	7978.00
849.08	7911.00
849.51	7918.00
849.95	7784.00
850.39	7759.00
850.83	7810.00
851.27	7828.00
851.70	7639.00
852.14	7721.00
852.58	7512.00
853.02	7347.00
853.46	7339.00
853.89	7221.00
854.33	7341.00
854.77	7473.00
855.21	7820.00
855.65	7986.00
856.08	8087.00
856.52	8007.00
856.96	8011.00
857.40	7813.00
857.83	7803.00
858.27	7716.00
858.71	7570.00
859.15	7536.00
859.58	7681.00
860.02	7663.00
860.46	7742.00
860.89	7851.00
861.33	7834.00
861.77	7965.00
862.21	8015.00
862.64	8117.00
863.08	7988.00
863.52	7981.00
863.95	7783.00
864.39	7697.00
864.83	7564.00
865.27	7302.00
865.70	7349.00
866.14	7142.00
866.58	7240.00
867.01	7413.00
867.45	7619.00
867.89	7751.00
868.32	7761.00
868.76	7883.00
869.20	7870.00
869.63	7993.00
870.07	7920.00
870.51	7645.00
870.94	7609.00
871.38	7556.00
871.82	7429.00
872.25	7391.00
872.69	7466.00
873.13	7340.00
873.56	7509.00
874.00	7616.00
874.43	7616.00
874.87	7604.00
875.31	7724.00
875.74	7738.00
876.18	7812.00
876.61	7811.00
877.05	7711.00
877.49	7619.00
877.92	7506.00
878.36	7499.00
878.79	7442.00
879.23	7312.00
879.67	7226.00
880.10	7205.00
880.54	7187.00
880.97	7248.00
881.41	7458.00
881.84	7557.00
882.28	7630.00
882.72	7699.00
883.15	7745.00
883.59	7806.00
884.02	7803.00
884.46	7662.00
884.89	7680.00
885.33	7618.00
885.76	7439.00
886.20	7317.00
886.63	7366.00
887.07	7153.00
887.50	7124.00
887.94	7210.00
888.37	7215.00
888.81	7504.00
889.24	7331.00
889.68	7431.00
890.11	7450.00
890.55	7588.00
890.98	7576.00
891.42	7496.00
891.85	7479.00
892.29	7513.00
892.72	7309.00
893.16	7150.00
893.59	7110.00
894.03	6888.00
894.46	6792.00
894.90	6615.00
895.33	6443.00
895.77	6486.00
896.20	6415.00
896.63	6433.00
897.07	6353.00
897.50	6366.00
897.94	6455.00
898.37	6686.00
898.81	6275.00
899.24	6384.00
899.68	6483.00
900.11	6519.00
900.54	6397.00
900.98	6273.00
901.41	6366.00
901.85	6460.00
902.28	6333.00
902.71	6390.00
903.15	6513.00
903.58	6675.00
904.02	6724.00
904.45	6646.00
904.88	6643.00
905.32	6537.00
905.75	6573.00
906.18	6430.00
906.62	6564.00
907.05	6375.00
907.48	6343.00
907.92	6337.00
908.35	6429.00
908.79	6247.00
909.22	6172.00
909.65	6193.00
910.09	6253.00
910.52	6269.00
910.95	6144.00
911.38	6147.00
911.82	6036.00
912.25	6168.00
912.68	6174.00
913.12	6174.00
913.55	6165.00
913.98	6337.00
914.42	6423.00
914.85	6421.00
915.28	6279.00
915.72	6217.00
916.15	6151.00
916.58	6242.00
917.01	6076.00
917.45	6043.00
917.88	6079.00
918.31	6184.00
918.74	6268.00
919.18	6338.00
919.61	6442.00
920.04	6418.00
920.47	6521.00
920.91	6535.00
921.34	6526.00
921.77	6469.00
922.20	6624.00
922.64	6509.00
923.07	6490.00
923.50	6521.00
923.93	6349.00
924.37	6323.00
924.80	6223.00
925.23	6303.00
925.66	6195.00
926.09	5985.00
926.53	5907.00
926.96	5796.00
927.39	5739.00
927.82	5501.00
928.25	5321.00
928.69	5354.00
929.12	5249.00
929.55	5176.00
929.98	5074.00
930.41	4861.00
930.84	4782.00
931.28	4603.00
931.71	4511.00
932.14	4403.00
932.57	4406.00
933.00	4169.00
933.43	4199.00
933.86	4060.00
934.30	4037.00
934.73	4195.00
935.16	4107.00
935.59	3984.00
936.02	4070.00
936.45	4111.00
936.88	4052.00
937.31	4264.00
937.75	4245.00
938.18	4314.00
938.61	4410.00
939.04	4479.00
939.47	4485.00
939.90	4436.00
940.33	4432.00
940.76	4133.00
941.19	4112.00
941.62	4066.00
942.05	4071.00
942.48	4001.00
942.91	3921.00
943.35	4021.00
943.78	3999.00
944.21	3967.00
944.64	4060.00
945.07	4049.00
945.50	4059.00
945.93	4089.00
946.36	4177.00
946.79	4191.00
947.22	4239.00
947.65	4223.00
948.08	4094.00
948.51	4199.00
948.94	4224.00
949.37	4322.00
949.80	4197.00
950.23	4177.00
950.66	4216.00
951.09	4221.00
951.52	4081.00
951.95	4151.00
952.38	4218.00
952.81	4387.00
953.24	4406.00
953.67	4412.00
954.10	4336.00
954.53	4436.00
954.96	4405.00
955.39	4480.00
955.82	4530.00
956.25	4500.00
956.68	4612.00
957.11	4534.00
957.53	4554.00
957.96	4547.00
958.39	4497.00
958.82	4364.00
959.25	4423.00
959.68	4459.00
960.11	4549.00
960.54	4628.00
960.97	4729.00
961.40	4812.00
961.83	4769.00
962.26	4753.00
962.68	4953.00
963.11	4949.00
963.54	4955.00
963.97	4985.00
964.40	4943.00
964.83	5083.00
965.26	4984.00
965.69	5019.00
966.11	5020.00
966.54	4971.00
966.97	5150.00
967.40	5254.00
967.83	5389.00
968.26	5175.00
968.69	5170.00
969.11	5264.00
969.54	5153.00
969.97	5249.00
970.40	5275.00
970.83	5229.00
971.26	5314.00
971.68	5233.00
972.11	5285.00
972.54	5372.00
972.97	5363.00
973.40	5264.00
973.82	5226.00
974.25	5311.00
974.68	5192.00
975.11	5165.00
975.54	5166.00
975.96	5127.00
976.39	5118.00
976.82	5173.00
977.25	5132.00
977.67	5125.00
978.10	5136.00
978.53	5076.00
978.96	5298.00
979.38	5279.00
979.81	5297.00
980.24	5380.00
980.67	5495.00
981.09	5523.00
981.52	5562.00
981.95	5470.00
982.38	5503.00
982.80	5469.00
983.23	5555.00
983.66	5647.00
984.08	5549.00
984.51	5462.00
984.94	5550.00
985.37	5516.00
985.79	5389.00
986.22	5363.00
986.65	5376.00
987.07	5363.00
987.50	5348.00
987.93	5274.00
988.35	5357.00
988.78	5338.00
989.21	5325.00
989.63	5454.00
990.06	5487.00
990.49	5502.00
990.91	5569.00
991.34	5539.00
991.77	5553.00
992.19	5578.00
992.62	5577.00
993.05	5575.00
993.47	5545.00
993.90	5585.00
994.32	5486.00
994.75	5391.00
995.18	5239.00
995.60	5273.00
996.03	5257.00
996.45	5285.00
996.88	5293.00
997.31	5259.00
997.73	5221.00
998.16	5209.00
998.58	5308.00
999.01	5258.00
999.44	5337.00
999.86	5417.00
1000.29	5295.00
1000.71	5335.00
1001.14	5405.00
1001.56	5392.00
1001.99	5392.00
1002.41	5316.00
1002.84	5298.00
1003.27	5167.00
1003.69	5193.00
1004.12	5173.00
1004.54	5101.00
1004.97	5070.00
1005.39	4997.00
1005.82	4997.00
1006.24	4953.00
1006.67	4977.00
1007.09	4923.00
1007.52	4995.00
1007.94	4959.00
1008.37	5133.00
1008.79	5063.00
1009.22	5083.00
1009.64	5051.00
1010.07	5090.00
1010.49	5119.00
1010.92	5087.00
1011.34	5052.00
1011.77	5020.00
1012.19	5091.00
1012.62	5027.00
1013.04	4974.00
1013.46	5012.00
1013.89	4829.00
1014.31	4890.00
1014.74	4836.00
1015.16	4803.00
1015.59	4755.00
1016.01	4806.00
1016.44	4774.00
1016.86	5613.00
1017.28	4823.00
1017.71	4786.00
1018.13	4971.00
1018.56	4912.00
1018.98	4950.00
1019.40	4877.00
1019.83	4920.00
1020.25	4974.00
1020.68	4969.00
1021.10	4994.00
1021.52	5019.00
1021.95	5166.00
1022.37	5078.00
1022.79	4985.00
1023.22	5005.00
1023.64	4976.00
1024.07	4925.00
1024.49	4957.00
1024.91	4825.00
1025.34	4837.00
1025.76	4897.00
1026.18	4805.00
1026.61	4869.00
1027.03	4794.00
1027.45	4816.00
1027.88	4815.00
1028.30	4885.00
1028.72	4827.00
1029.15	4811.00
1029.57	4887.00
1029.99	4915.00
1030.41	4815.00
1030.84	4838.00
1031.26	4877.00
1031.68	4811.00
1032.11	4800.00
1032.53	4753.00
1032.95	4673.00
1033.37	4758.00
1033.80	4796.00
1034.22	4666.00
1034.64	4745.00
1035.06	4593.00
1035.49	4570.00
1035.91	4593.00
1036.33	4493.00
1036.75	4597.00
1037.18	4523.00
1037.60	4570.00
1038.02	4568.00
1038.44	4580.00
1038.87	4475.00
1039.29	4517.00
1039.71	4549.00
1040.13	4510.00
1040.55	4648.00
1040.98	4632.00
1041.40	4549.00
1041.82	4562.00
1042.24	4524.00
1042.66	4551.00
1043.09	4420.00
1043.51	4423.00
1043.93	4356.00
1044.35	4328.00
1044.77	4375.00
1045.20	4351.00
1045.62	4261.00
1046.04	4322.00
1046.46	4321.00
1046.88	4221.00
1047.30	4268.00
1047.72	4248.00
1048.15	4316.00
1048.57	4238.00
1048.99	4220.00
1049.41	4311.00
1049.83	4237.00
1050.25	4294.00
1050.67	4236.00
1051.09	4207.00
1051.52	4229.00
1051.94	4133.00
1052.36	4187.00
1052.78	4128.00
1053.20	4228.00
1053.62	4168.00
1054.04	4148.00
1054.46	4141.00
1054.88	4286.00
1055.30	4128.00
1055.72	4123.00
1056.14	4091.00
1056.57	4266.00
1056.99	3999.00
1057.41	4038.00
1057.83	4083.00
1058.25	4071.00
1058.67	4001.00
1059.09	3963.00
1059.51	4043.00
1059.93	3997.00
1060.35	3901.00
1060.77	3982.00
1061.19	4029.00
1061.61	3928.00
1062.03	3911.00
1062.45	3937.00
1062.87	3925.00
1063.29	3969.00
1063.71	3911.00
1064.13	3918.00
1064.55	3836.00
1064.97	3943.00
1065.39	3922.00
1065.81	3881.00
1066.23	3882.00
1066.65	3880.00
1067.07	3927.00
1067.49	3852.00
1067.91	3853.00
1068.33	3790.00
1068.75	3879.00
1069.17	3858.00
1069.59	3826.00
1070.00	3802.00
1070.42	3801.00
1070.84	3743.00
1071.26	3748.00
1071.68	3720.00
1072.10	3829.00
1072.52	3737.00
1072.94	3714.00
1073.36	3739.00
1073.78	3772.00
1074.20	3792.00
1074.62	3731.00
1075.03	3703.00
1075.45	3774.00
1075.87	3781.00
1076.29	3737.00
1076.71	3767.00
1077.13	3782.00
1077.55	3643.00
1077.97	3705.00
1078.38	3732.00
1078.80	3694.00
1079.22	3664.00
1079.64	3658.00
1080.06	3669.00
1080.48	3675.00
1080.89	3647.00
1081.31	3645.00
1081.73	3649.00
1082.15	3623.00
1082.57	3699.00
1082.99	3592.00
1083.40	3593.00
1083.82	3659.00
1084.24	3613.00
1084.66	3601.00
1085.08	3591.00
1085.49	3509.00
1085.91	3645.00
1086.33	4838.00
1086.75	3635.00
1087.17	3575.00
1087.58	3574.00
1088.00	3562.00
1088.42	3656.00
1088.84	3542.00
1089.25	3476.00
1089.67	3582.00
1090.09	3577.00
1090.51	3505.00
1090.92	3575.00
1091.34	3513.00
1091.76	3532.00
1092.18	3489.00
1092.59	3524.00
1093.01	3469.00
1093.43	3487.00
1093.84	3452.00
1094.26	3482.00
1094.68	3525.00
1095.10	3413.00
1095.51	3466.00
1095.93	3464.00
1096.35	3469.00
1096.76	3543.00
1097.18	3500.00
1097.60	3465.00
1098.01	3465.00
1098.43	3433.00
1098.85	3419.00
1099.26	3429.00
1099.68	3433.00
1100.10	3397.00
1100.51	3395.00
1100.93	3400.00
1101.35	3426.00
1101.76	3412.00
1102.18	3913.00
1102.60	3434.00
1103.01	3314.00
1103.43	3394.00
1103.84	3367.00
1104.26	3356.00
1104.68	3394.00
1105.09	3325.00
1105.51	3311.00
1105.92	3438.00
1106.34	3310.00
1106.76	3361.00
1107.17	3338.00
1107.59	3379.00
1108.00	3281.00
1108.42	3323.00
1108.83	3277.00
1109.25	3276.00
1109.67	3275.00
1110.08	3272.00
1110.50	3277.00
1110.91	3294.00
1111.33	3250.00
1111.74	3288.00
1112.16	3293.00
1112.57	3309.00
1112.99	3239.00
1113.41	3275.00
1113.82	3252.00
1114.24	3258.00
1114.65	3189.00
1115.07	3165.00
1115.48	3118.00
1115.90	2187.00
1116.31	2209.00
1116.73	2212.00
1117.14	2213.00
>>>>>End Processed Spectral Data<<<<<
