SpectraSuite Data File
++++++++++++++++++++++++++++++++++++
Date: Tue May 29 13:11:17 EEST 2018
User: CanSEE
Dark Spectrum Present: No
Reference Spectrum Present: No
Number of Sampled Component Spectra: 1
Spectrometers: MAYP11278
Integration Time (usec): 230000 (MAYP11278)
Spectra Averaged: 1 (MAYP11278)
Boxcar Smoothing: 0 (MAYP11278)
Correct for Electrical Dark: No (MAYP11278)
Strobe/Lamp Enabled: No (MAYP11278)
Correct for Detector Non-linearity: No (MAYP11278)
Correct for Stray Light: No (MAYP11278)
Number of Pixels in Processed Spectrum: 2068
>>>>>Begin Processed Spectral Data<<<<<
187.82	2346.00
188.30	2240.00
188.78	2219.00
189.26	2218.00
189.73	3264.00
190.21	3441.00
190.69	3560.00
191.17	3571.00
191.64	3628.00
192.12	3599.00
192.60	3549.00
193.07	3537.00
193.55	3598.00
194.03	3567.00
194.51	3582.00
194.98	3546.00
195.46	3597.00
195.94	3542.00
196.42	3559.00
196.89	3692.00
197.37	3571.00
197.85	3540.00
198.32	3585.00
198.80	3541.00
199.28	3579.00
199.76	3652.00
200.23	3553.00
200.71	3586.00
201.19	3593.00
201.66	3607.00
202.14	3596.00
202.62	3552.00
203.09	3591.00
203.57	3535.00
204.05	3614.00
204.53	3635.00
205.00	3557.00
205.48	3548.00
205.96	3651.00
206.43	3618.00
206.91	3596.00
207.39	3673.00
207.86	3549.00
208.34	3600.00
208.82	3566.00
209.29	3639.00
209.77	3579.00
210.25	3601.00
210.72	3565.00
211.20	3634.00
211.68	3591.00
212.15	3559.00
212.63	3639.00
213.11	3629.00
213.58	3557.00
214.06	3667.00
214.53	3556.00
215.01	3628.00
215.49	3605.00
215.96	3627.00
216.44	3639.00
216.92	3618.00
217.39	3525.00
217.87	3595.00
218.35	3594.00
218.82	3507.00
219.30	3521.00
219.77	3550.00
220.25	3560.00
220.73	3681.00
221.20	3545.00
221.68	3581.00
222.15	3549.00
222.63	3631.00
223.11	3549.00
223.58	3587.00
224.06	3599.00
224.53	3514.00
225.01	3512.00
225.49	3548.00
225.96	3511.00
226.44	3602.00
226.91	3601.00
227.39	3545.00
227.87	3598.00
228.34	3603.00
228.82	3582.00
229.29	3564.00
229.77	3576.00
230.24	3563.00
230.72	3587.00
231.20	3619.00
231.67	3570.00
232.15	3555.00
232.62	3529.00
233.10	3555.00
233.57	3587.00
234.05	3729.00
234.53	3541.00
235.00	3584.00
235.48	3540.00
235.95	3581.00
236.43	3614.00
236.90	3677.00
237.38	3550.00
237.85	3587.00
238.33	3619.00
238.80	3563.00
239.28	3561.00
239.75	3528.00
240.23	3573.00
240.71	3673.00
241.18	3586.00
241.66	3554.00
242.13	3629.00
242.61	3616.00
243.08	3512.00
243.56	3584.00
244.03	3616.00
244.51	3668.00
244.98	3582.00
245.46	3624.00
245.93	4969.00
246.41	3524.00
246.88	3593.00
247.36	3577.00
247.83	3549.00
248.31	3600.00
248.78	3520.00
249.26	3599.00
249.73	3636.00
250.21	3591.00
250.68	3659.00
251.16	3572.00
251.63	3657.00
252.10	3646.00
252.58	3585.00
253.05	3663.00
253.53	3597.00
254.00	3544.00
254.48	3623.00
254.95	3615.00
255.43	3661.00
255.90	3569.00
256.38	3612.00
256.85	3634.00
257.33	3649.00
257.80	3727.00
258.27	3613.00
258.75	3593.00
259.22	3589.00
259.70	3617.00
260.17	3665.00
260.65	3600.00
261.12	3587.00
261.59	3655.00
262.07	3592.00
262.54	3627.00
263.02	3614.00
263.49	3525.00
263.97	3619.00
264.44	3661.00
264.91	3581.00
265.39	3607.00
265.86	3626.00
266.34	3631.00
266.81	3594.00
267.28	3631.00
267.76	3583.00
268.23	3628.00
268.71	3528.00
269.18	3553.00
269.65	3555.00
270.13	3609.00
270.60	3644.00
271.08	3578.00
271.55	3597.00
272.02	3548.00
272.50	3566.00
272.97	3566.00
273.44	3598.00
273.92	3725.00
274.39	3620.00
274.87	3632.00
275.34	3572.00
275.81	3611.00
276.29	3563.00
276.76	3601.00
277.23	3462.00
277.71	3483.00
278.18	3480.00
278.65	3665.00
279.13	3520.00
279.60	3583.00
280.07	3877.00
280.55	3826.00
281.02	3915.00
281.50	3643.00
281.97	3729.00
282.44	3659.00
282.91	3649.00
283.39	3657.00
283.86	3561.00
284.33	3569.00
284.81	3689.00
285.28	3663.00
285.75	3648.00
286.23	3640.00
286.70	3562.00
287.17	3640.00
287.65	3705.00
288.12	3603.00
288.59	3684.00
289.07	3580.00
289.54	3664.00
290.01	3609.00
290.48	3656.00
290.96	3607.00
291.43	3650.00
291.90	3716.00
292.38	3597.00
292.85	3627.00
293.32	3591.00
293.79	3660.00
294.27	3634.00
294.74	3569.00
295.21	3645.00
295.69	3672.00
296.16	3721.00
296.63	3680.00
297.10	3659.00
297.58	3636.00
298.05	3662.00
298.52	3621.00
298.99	3672.00
299.47	3614.00
299.94	3609.00
300.41	3567.00
300.88	3653.00
301.36	3617.00
301.83	3637.00
302.30	3592.00
302.77	3667.00
303.25	3678.00
303.72	3584.00
304.19	3588.00
304.66	3589.00
305.13	3607.00
305.61	3623.00
306.08	3639.00
306.55	3634.00
307.02	3591.00
307.49	3593.00
307.97	3620.00
308.44	3613.00
308.91	3626.00
309.38	3655.00
309.86	3631.00
310.33	3595.00
310.80	3655.00
311.27	3630.00
311.74	3645.00
312.21	3648.00
312.69	3707.00
313.16	3569.00
313.63	3631.00
314.10	3612.00
314.57	3592.00
315.05	3633.00
315.52	3679.00
315.99	3655.00
316.46	3645.00
316.93	3661.00
317.40	3618.00
317.88	3755.00
318.35	3601.00
318.82	3600.00
319.29	3542.00
319.76	3688.00
320.23	3700.00
320.70	3674.00
321.18	3651.00
321.65	3586.00
322.12	3612.00
322.59	3723.00
323.06	3643.00
323.53	3767.00
324.00	3637.00
324.48	3660.00
324.95	3603.00
325.42	3653.00
325.89	3643.00
326.36	3667.00
326.83	3674.00
327.30	3720.00
327.77	3680.00
328.24	3695.00
328.72	3619.00
329.19	3656.00
329.66	3631.00
330.13	3662.00
330.60	3714.00
331.07	3657.00
331.54	3739.00
332.01	3646.00
332.48	3757.00
332.95	3703.00
333.43	3692.00
333.90	3774.00
334.37	3702.00
334.84	3695.00
335.31	3858.00
335.78	3661.00
336.25	3676.00
336.72	3645.00
337.19	3681.00
337.66	3629.00
338.13	3611.00
338.60	3724.00
339.07	3677.00
339.54	3579.00
340.01	3561.00
340.49	3588.00
340.96	3613.00
341.43	3667.00
341.90	3578.00
342.37	3627.00
342.84	3637.00
343.31	3568.00
343.78	3581.00
344.25	3629.00
344.72	3602.00
345.19	3623.00
345.66	3639.00
346.13	3574.00
346.60	3537.00
347.07	3695.00
347.54	3561.00
348.01	3663.00
348.48	3551.00
348.95	3543.00
349.42	3620.00
349.89	3630.00
350.36	3611.00
350.83	3593.00
351.30	3652.00
351.77	3679.00
352.24	3632.00
352.71	3548.00
353.18	3629.00
353.65	3602.00
354.12	3589.00
354.59	3610.00
355.06	3638.00
355.53	3681.00
356.00	3567.00
356.47	3686.00
356.94	3534.00
357.41	3766.00
357.88	3660.00
358.35	3542.00
358.82	3595.00
359.28	3598.00
359.75	3603.00
360.22	3623.00
360.69	3632.00
361.16	3631.00
361.63	3604.00
362.10	3627.00
362.57	3623.00
363.04	3603.00
363.51	3733.00
363.98	3605.00
364.45	3564.00
364.92	3689.00
365.39	3587.00
365.86	3595.00
366.32	3621.00
366.79	3623.00
367.26	4831.00
367.73	3937.00
368.20	3591.00
368.67	3653.00
369.14	3607.00
369.61	3633.00
370.08	3648.00
370.55	3584.00
371.02	4480.00
371.48	3596.00
371.95	3583.00
372.42	3594.00
372.89	3680.00
373.36	3635.00
373.83	3551.00
374.30	3596.00
374.77	3661.00
375.23	3558.00
375.70	3714.00
376.17	3618.00
376.64	3595.00
377.11	3601.00
377.58	3691.00
378.05	3627.00
378.51	3635.00
378.98	3628.00
379.45	3595.00
379.92	3629.00
380.39	3785.00
380.86	3604.00
381.33	3688.00
381.79	3735.00
382.26	3576.00
382.73	3637.00
383.20	3658.00
383.67	3674.00
384.14	3661.00
384.60	3840.00
385.07	3627.00
385.54	3651.00
386.01	3643.00
386.48	3737.00
386.94	3592.00
387.41	3554.00
387.88	3699.00
388.35	3629.00
388.82	3705.00
389.28	3623.00
389.75	3669.00
390.22	3681.00
390.69	3682.00
391.16	3660.00
391.62	3643.00
392.09	3652.00
392.56	3589.00
393.03	3618.00
393.50	3731.00
393.96	3623.00
394.43	3695.00
394.90	3593.00
395.37	3703.00
395.83	3826.00
396.30	3609.00
396.77	3677.00
397.24	3674.00
397.70	3600.00
398.17	3677.00
398.64	3611.00
399.11	3644.00
399.57	3701.00
400.04	3615.00
400.51	3680.00
400.98	3655.00
401.44	3699.00
401.91	3683.00
402.38	3677.00
402.84	3704.00
403.31	3705.00
403.78	3691.00
404.25	3782.00
404.71	3760.00
405.18	3760.00
405.65	3641.00
406.12	3763.00
406.58	3703.00
407.05	3808.00
407.52	3731.00
407.98	4287.00
408.45	3714.00
408.92	3700.00
409.38	3791.00
409.85	3681.00
410.32	3765.00
410.78	3739.00
411.25	3839.00
411.72	3793.00
412.18	3719.00
412.65	3799.00
413.12	3813.00
413.59	3807.00
414.05	3810.00
414.52	3911.00
414.98	3847.00
415.45	3933.00
415.92	3910.00
416.38	3871.00
416.85	3968.00
417.32	3887.00
417.78	3897.00
418.25	3934.00
418.72	3904.00
419.18	4000.00
419.65	3883.00
420.12	4011.00
420.58	3984.00
421.05	4001.00
421.51	3973.00
421.98	4025.00
422.45	3984.00
422.91	4025.00
423.38	4096.00
423.85	4091.00
424.31	4040.00
424.78	4136.00
425.24	4135.00
425.71	4191.00
426.18	4147.00
426.64	4173.00
427.11	4146.00
427.57	4147.00
428.04	4090.00
428.51	4167.00
428.97	4161.00
429.44	4117.00
429.90	4129.00
430.37	4245.00
430.83	4108.00
431.30	4179.00
431.77	4370.00
432.23	4306.00
432.70	4338.00
433.16	4247.00
433.63	4307.00
434.09	4295.00
434.56	4393.00
435.03	4355.00
435.49	4432.00
435.96	4441.00
436.42	4414.00
436.89	4492.00
437.35	4439.00
437.82	4470.00
438.28	4358.00
438.75	4388.00
439.21	4644.00
439.68	4530.00
440.14	4515.00
440.61	4582.00
441.07	4502.00
441.54	4598.00
442.00	4720.00
442.47	4606.00
442.94	4648.00
443.40	4613.00
443.87	4646.00
444.33	4801.00
444.80	4668.00
445.26	4719.00
445.73	4667.00
446.19	4780.00
446.65	4828.00
447.12	4869.00
447.58	4828.00
448.05	4875.00
448.51	4888.00
448.98	4911.00
449.44	4947.00
449.91	4955.00
450.37	5001.00
450.84	5033.00
451.30	5028.00
451.77	5028.00
452.23	4936.00
452.70	5009.00
453.16	5039.00
453.62	4991.00
454.09	5031.00
454.55	5117.00
455.02	5069.00
455.48	5097.00
455.95	5175.00
456.41	5147.00
456.88	5204.00
457.34	5175.00
457.80	5151.00
458.27	5113.00
458.73	5110.00
459.20	5213.00
459.66	5175.00
460.13	5136.00
460.59	5169.00
461.05	5259.00
461.52	5290.00
461.98	5204.00
462.45	5212.00
462.91	5249.00
463.37	5214.00
463.84	5211.00
464.30	5180.00
464.76	5097.00
465.23	5209.00
465.69	5201.00
466.16	5225.00
466.62	5141.00
467.08	5232.00
467.55	5205.00
468.01	5291.00
468.48	5284.00
468.94	5207.00
469.40	5239.00
469.87	5223.00
470.33	5139.00
470.79	5180.00
471.26	5235.00
471.72	5262.00
472.18	5342.00
472.65	5290.00
473.11	5348.00
473.57	5319.00
474.04	5304.00
474.50	5315.00
474.96	5344.00
475.43	5365.00
475.89	5341.00
476.35	5367.00
476.82	5359.00
477.28	5443.00
477.74	5519.00
478.21	5498.00
478.67	5512.00
479.13	5491.00
479.59	5517.00
480.06	5497.00
480.52	5476.00
480.98	5499.00
481.45	5557.00
481.91	5493.00
482.37	5472.00
482.84	5515.00
483.30	5453.00
483.76	5477.00
484.22	5578.00
484.69	5475.00
485.15	5317.00
485.61	5168.00
486.07	5197.00
486.54	5215.00
487.00	5461.00
487.46	5459.00
487.92	5452.00
488.39	5536.00
488.85	5529.00
489.31	5686.00
489.77	5701.00
490.24	5652.00
490.70	5691.00
491.16	5577.00
491.62	5572.00
492.09	5617.00
492.55	5786.00
493.01	5803.00
493.47	5818.00
493.94	5838.00
494.40	5863.00
494.86	5982.00
495.32	5965.00
495.78	5994.00
496.25	6019.00
496.71	6072.00
497.17	6223.00
497.63	6109.00
498.09	6023.00
498.56	6145.00
499.02	6237.00
499.48	6384.00
499.94	6205.00
500.40	6233.00
500.87	6247.00
501.33	6284.00
501.79	6459.00
502.25	6521.00
502.71	6864.00
503.17	6755.00
503.64	6689.00
504.10	6763.00
504.56	6975.00
505.02	7095.00
505.48	7095.00
505.94	7291.00
506.40	7318.00
506.87	7341.00
507.33	7495.00
507.79	7584.00
508.25	7695.00
508.71	7858.00
509.17	7973.00
509.63	8060.00
510.10	8228.00
510.56	8323.00
511.02	8679.00
511.48	8890.00
511.94	8803.00
512.40	8742.00
512.86	9008.00
513.32	9176.00
513.78	9215.00
514.25	9454.00
514.71	10431.00
515.17	9891.00
515.63	10141.00
516.09	9980.00
516.55	9659.00
517.01	9884.00
517.47	10530.00
517.93	10579.00
518.39	10937.00
518.85	11308.00
519.32	11683.00
519.78	12063.00
520.24	12302.00
520.70	12593.00
521.16	13079.00
521.62	13269.00
522.08	13435.00
522.54	13497.00
523.00	13875.00
523.46	14447.00
523.92	14788.00
524.38	15319.00
524.84	15283.00
525.30	15493.00
525.76	15556.00
526.22	14974.00
526.68	15025.00
527.14	15643.00
527.60	16377.00
528.06	16932.00
528.52	17307.00
528.98	17799.00
529.44	17567.00
529.90	17967.00
530.36	18442.00
530.82	18747.00
531.28	18766.00
531.74	18594.00
532.20	18216.00
532.66	18127.00
533.12	18961.00
533.58	19225.00
534.04	19251.00
534.50	19541.00
534.96	19946.00
535.42	20423.00
535.88	20315.00
536.34	20038.00
536.80	19849.00
537.26	20507.00
537.72	20931.00
538.18	20864.00
538.64	20888.00
539.10	20693.00
539.56	20784.00
540.02	20315.00
540.48	20478.00
540.94	20713.00
541.40	21238.00
541.86	21493.00
542.32	21396.00
542.78	21489.00
543.24	21799.00
543.69	22075.00
544.15	22330.00
544.61	22192.00
545.07	22258.00
545.53	22482.00
545.99	22604.00
546.45	22647.00
546.91	22602.00
547.37	22299.00
547.83	22603.00
548.29	22757.00
548.74	23240.00
549.20	23230.00
549.66	23465.00
550.12	23413.00
550.58	23408.00
551.04	23513.00
551.50	23609.00
551.96	24060.00
552.42	23678.00
552.87	23525.00
553.33	23834.00
553.79	24049.00
554.25	24097.00
554.71	24259.00
555.17	24321.00
555.63	24105.00
556.08	23816.00
556.54	23679.00
557.00	23535.00
557.46	23676.00
557.92	23705.00
558.38	23084.00
558.83	22745.00
559.29	23045.00
559.75	23076.00
560.21	23258.00
560.67	23644.00
561.13	23375.00
561.58	23102.00
562.04	23078.00
562.50	23241.00
562.96	23254.00
563.42	23001.00
563.87	22748.00
564.33	22774.00
564.79	22745.00
565.25	22485.00
565.71	21968.00
566.16	22055.00
566.62	22204.00
567.08	22162.00
567.54	22183.00
568.00	21685.00
568.45	21225.00
568.91	21254.00
569.37	21325.00
569.83	20897.00
570.28	20515.00
570.74	20167.00
571.20	20154.00
571.66	20544.00
572.11	20649.00
572.57	20315.00
573.03	20336.00
573.49	20263.00
573.94	20035.00
574.40	19905.00
574.86	19539.00
575.32	19143.00
575.77	19167.00
576.23	19213.00
576.69	19185.00
577.15	18962.00
577.60	18724.00
578.06	18373.00
578.52	18353.00
578.97	18503.00
579.43	18425.00
579.89	18504.00
580.34	18290.00
580.80	18423.00
581.26	18399.00
581.72	18258.00
582.17	18321.00
582.63	18345.00
583.09	18125.00
583.54	18107.00
584.00	17978.00
584.46	18014.00
584.91	17662.00
585.37	17449.00
585.83	17279.00
586.28	17249.00
586.74	17520.00
587.20	17399.00
587.65	17334.00
588.11	16830.00
588.57	16090.00
589.02	15404.00
589.48	15497.00
589.94	16046.00
590.39	16514.00
590.85	16528.00
591.30	16399.00
591.76	16481.00
592.22	16501.00
592.67	16497.00
593.13	16361.00
593.59	16421.00
594.04	16220.00
594.50	16063.00
594.95	16045.00
595.41	16304.00
595.87	16177.00
596.32	16423.00
596.78	16297.00
597.23	16203.00
597.69	16233.00
598.15	16022.00
598.60	16119.00
599.06	16142.00
599.51	16125.00
599.97	16049.00
600.43	15946.00
600.88	16064.00
601.34	15958.00
601.79	15770.00
602.25	15832.00
602.70	16003.00
603.16	16029.00
603.61	15965.00
604.07	15947.00
604.53	15906.00
604.98	15762.00
605.44	15641.00
605.89	15745.00
606.35	15548.00
606.80	15531.00
607.26	15473.00
607.71	15270.00
608.17	15219.00
608.62	15018.00
609.08	14991.00
609.53	14981.00
609.99	14605.00
610.44	14582.00
610.90	14651.00
611.35	14623.00
611.81	14427.00
612.26	14370.00
612.72	14347.00
613.17	14299.00
613.63	13943.00
614.08	13878.00
614.54	14061.00
614.99	13867.00
615.45	13875.00
615.90	13456.00
616.36	13355.00
616.81	13285.00
617.27	13461.00
617.72	13651.00
618.18	13541.00
618.63	13421.00
619.09	13309.00
619.54	13508.00
619.99	13364.00
620.45	13539.00
620.90	13436.00
621.36	13198.00
621.81	13095.00
622.27	13155.00
622.72	12958.00
623.18	12931.00
623.63	12970.00
624.08	12911.00
624.54	12669.00
624.99	12644.00
625.45	12669.00
625.90	12832.00
626.35	12859.00
626.81	12956.00
627.26	12706.00
627.72	12678.00
628.17	12615.00
628.62	12688.00
629.08	12766.00
629.53	12666.00
629.99	12572.00
630.44	12671.00
630.89	12738.00
631.35	12601.00
631.80	12601.00
632.26	12691.00
632.71	12787.00
633.16	12782.00
633.62	12573.00
634.07	12667.00
634.52	12586.00
634.98	12614.00
635.43	12580.00
635.88	12305.00
636.34	12423.00
636.79	12476.00
637.24	12427.00
637.70	12421.00
638.15	12363.00
638.60	12184.00
639.06	12059.00
639.51	11861.00
639.96	11840.00
640.42	11781.00
640.87	11558.00
641.32	11458.00
641.78	11320.00
642.23	11255.00
642.68	11263.00
643.14	11075.00
643.59	11058.00
644.04	10872.00
644.49	10793.00
644.95	10644.00
645.40	10474.00
645.85	10482.00
646.31	10221.00
646.76	10185.00
647.21	10023.00
647.66	10072.00
648.12	9869.00
648.57	9794.00
649.02	9723.00
649.47	9420.00
649.93	9652.00
650.38	9654.00
650.83	9695.00
651.28	9482.00
651.74	9412.00
652.19	9467.00
652.64	9436.00
653.09	9316.00
653.55	9260.00
654.00	9298.00
654.45	9125.00
654.90	9020.00
655.35	8803.00
655.81	8420.00
656.26	7904.00
656.71	8220.00
657.16	8421.00
657.62	8695.00
658.07	8589.00
658.52	8620.00
658.97	8434.00
659.42	8539.00
659.88	8299.00
660.33	8368.00
660.78	8233.00
661.23	8129.00
661.68	8049.00
662.13	7804.00
662.59	7882.00
663.04	7837.00
663.49	7754.00
663.94	7613.00
664.39	7477.00
664.84	7537.00
665.30	7465.00
665.75	7279.00
666.20	7189.00
666.65	7217.00
667.10	7317.00
667.55	7088.00
668.00	7046.00
668.46	7018.00
668.91	6939.00
669.36	7027.00
669.81	6783.00
670.26	6788.00
670.71	6892.00
671.16	6701.00
671.61	6764.00
672.06	6757.00
672.52	6615.00
672.97	6669.00
673.42	6716.00
673.87	6761.00
674.32	6574.00
674.77	6545.00
675.22	6444.00
675.67	6529.00
676.12	6567.00
676.57	6555.00
677.02	6536.00
677.47	6564.00
677.93	6639.00
678.38	6471.00
678.83	6557.00
679.28	6568.00
679.73	6553.00
680.18	6662.00
680.63	6622.00
681.08	6543.00
681.53	6616.00
681.98	6663.00
682.43	6737.00
682.88	6849.00
683.33	6959.00
683.78	6937.00
684.23	7005.00
684.68	7169.00
685.13	7307.00
685.58	7405.00
686.03	7356.00
686.48	7179.00
686.93	6853.00
687.38	6983.00
687.83	7544.00
688.28	7906.00
688.73	8257.00
689.18	8431.00
689.63	8613.00
690.08	9050.00
690.53	9501.00
690.98	9930.00
691.43	10376.00
691.88	10880.00
692.33	11491.00
692.78	11898.00
693.23	12493.00
693.68	12927.00
694.13	13480.00
694.58	14042.00
695.03	14927.00
695.48	15477.00
695.93	16274.00
696.38	17279.00
696.83	18065.00
697.28	18639.00
697.72	19258.00
698.17	19877.00
698.62	20664.00
699.07	21185.00
699.52	21857.00
699.97	22579.00
700.42	23155.00
700.87	23844.00
701.32	24605.00
701.77	25002.00
702.22	25785.00
702.67	26472.00
703.11	27702.00
703.56	28420.00
704.01	29377.00
704.46	30132.00
704.91	30833.00
705.36	31305.00
705.81	31838.00
706.26	32274.00
706.70	33224.00
707.15	33877.00
707.60	34625.00
708.05	35157.00
708.50	35751.00
708.95	36417.00
709.40	36905.00
709.84	37395.00
710.29	38082.00
710.74	38418.00
711.19	38917.00
711.64	39547.00
712.09	40014.00
712.53	40619.00
712.98	40949.00
713.43	41573.00
713.88	41768.00
714.33	41988.00
714.78	41869.00
715.22	42364.00
715.67	42381.00
716.12	41984.00
716.57	40677.00
717.02	39097.00
717.46	38151.00
717.91	37883.00
718.36	36940.00
718.81	36749.00
719.26	36937.00
719.70	37716.00
720.15	38197.00
720.60	39876.00
721.05	42751.00
721.49	44792.00
721.94	45698.00
722.39	45522.00
722.84	44450.00
723.28	42954.00
723.73	42227.00
724.18	42316.00
724.63	43289.00
725.07	43073.00
725.52	44092.00
725.97	44618.00
726.42	45204.00
726.86	45741.00
727.31	45344.00
727.76	45253.00
728.21	46347.00
728.65	46213.00
729.10	45931.00
729.55	47100.00
729.99	48122.00
730.44	48302.00
730.89	48917.00
731.33	49561.00
731.78	50831.00
732.23	51969.00
732.68	52853.00
733.12	53508.00
733.57	54444.00
734.02	55393.00
734.46	55592.00
734.91	55836.00
735.36	55930.00
735.80	56594.00
736.25	56489.00
736.70	56710.00
737.14	57367.00
737.59	57588.00
738.04	57613.00
738.48	57212.00
738.93	57467.00
739.37	57997.00
739.82	58462.00
740.27	59033.00
740.71	59047.00
741.16	59016.00
741.61	59148.00
742.05	59007.00
742.50	59630.00
742.94	60029.00
743.39	60285.00
743.84	60137.00
744.28	60218.00
744.73	60463.00
745.18	61128.00
745.62	61152.00
746.07	61384.00
746.51	61245.00
746.96	61158.00
747.40	60956.00
747.85	60689.00
748.30	60550.00
748.74	60715.00
749.19	60333.00
749.63	60590.00
750.08	60784.00
750.52	60650.00
750.97	60497.00
751.42	60418.00
751.86	60576.00
752.31	60244.00
752.75	60306.00
753.20	60176.00
753.64	60192.00
754.09	60197.00
754.53	60391.00
754.98	60433.00
755.42	60273.00
755.87	60160.00
756.31	59900.00
756.76	59497.00
757.20	59106.00
757.65	58536.00
758.09	57701.00
758.54	55865.00
758.98	49848.00
759.43	39157.00
759.87	27670.00
760.32	20665.00
760.76	20349.00
761.21	25356.00
761.65	31386.00
762.10	32887.00
762.54	31335.00
762.99	29602.00
763.43	30295.00
763.88	32481.00
764.32	35259.00
764.77	38360.00
765.21	41194.00
765.66	43559.00
766.10	46136.00
766.54	48645.00
766.99	50905.00
767.43	52779.00
767.88	53847.00
768.32	55037.00
768.77	55933.00
769.21	56800.00
769.66	57291.00
770.10	58201.00
770.54	58636.00
770.99	58367.00
771.43	58244.00
771.88	58339.00
772.32	58122.00
772.76	58233.00
773.21	57945.00
773.65	58094.00
774.10	57683.00
774.54	57338.00
774.98	57608.00
775.43	58158.00
775.87	58824.00
776.31	58942.00
776.76	59051.00
777.20	58544.00
777.65	58018.00
778.09	57896.00
778.53	57404.00
778.98	57399.00
779.42	57352.00
779.86	57217.00
780.31	57006.00
780.75	57680.00
781.19	57888.00
781.64	58020.00
782.08	57937.00
782.52	57667.00
782.97	57208.00
783.41	56618.00
783.85	56338.00
784.30	55996.00
784.74	55960.00
785.18	55732.00
785.63	55601.00
786.07	55606.00
786.51	56048.00
786.95	56228.00
787.40	55787.00
787.84	55556.00
788.28	55043.00
788.73	54839.00
789.17	54021.00
789.61	53821.00
790.05	53392.00
790.50	52912.00
790.94	52724.00
791.38	52817.00
791.82	52932.00
792.27	53243.00
792.71	53200.00
793.15	53285.00
793.59	53232.00
794.04	52913.00
794.48	52624.00
794.92	51882.00
795.36	51751.00
795.81	51209.00
796.25	50902.00
796.69	51448.00
797.13	51876.00
797.57	52333.00
798.02	52844.00
798.46	52875.00
798.90	52688.00
799.34	52144.00
799.79	51612.00
800.23	50662.00
800.67	50188.00
801.11	50151.00
801.55	50140.00
801.99	49946.00
802.44	50144.00
802.88	50207.00
803.32	50728.00
803.76	50689.00
804.20	51185.00
804.64	50889.00
805.09	50873.00
805.53	50884.00
805.97	50472.00
806.41	49842.00
806.85	49209.00
807.29	48982.00
807.74	48963.00
808.18	48642.00
808.62	48769.00
809.06	48705.00
809.50	48602.00
809.94	48769.00
810.38	48819.00
810.82	48997.00
811.27	48712.00
811.71	47841.00
812.15	46724.00
812.59	45367.00
813.03	44223.00
813.47	42687.00
813.91	41694.00
814.35	41189.00
814.79	40712.00
815.23	40497.00
815.67	39932.00
816.12	40190.00
816.56	39771.00
817.00	40162.00
817.44	40793.00
817.88	40696.00
818.32	39904.00
818.76	40340.00
819.20	40087.00
819.64	40532.00
820.08	41043.00
820.52	41868.00
820.96	42978.00
821.40	42294.00
821.84	40749.00
822.28	38435.00
822.72	38044.00
823.16	38076.00
823.60	40110.00
824.04	42848.00
824.48	43529.00
824.92	43401.00
825.36	43307.00
825.80	42822.00
826.24	42392.00
826.68	41899.00
827.12	41953.00
827.56	41071.00
828.00	41051.00
828.44	41581.00
828.88	41989.00
829.32	42357.00
829.76	42387.00
830.20	43093.00
830.64	42634.00
831.08	42152.00
831.52	41673.00
831.96	41067.00
832.40	40651.00
832.84	41019.00
833.28	41501.00
833.72	42297.00
834.16	43046.00
834.60	44199.00
835.04	44957.00
835.48	45072.00
835.91	44923.00
836.35	44694.00
836.79	44309.00
837.23	44178.00
837.67	43570.00
838.11	43319.00
838.55	43631.00
838.99	43492.00
839.43	43811.00
839.87	44315.00
840.30	44893.00
840.74	45745.00
841.18	45894.00
841.62	46365.00
842.06	46312.00
842.50	46110.00
842.94	45493.00
843.38	44824.00
843.81	44127.00
844.25	43597.00
844.69	43296.00
845.13	43243.00
845.57	43449.00
846.01	43583.00
846.45	43863.00
846.88	44573.00
847.32	45147.00
847.76	45397.00
848.20	45609.00
848.64	45044.00
849.08	44285.00
849.51	44175.00
849.95	43187.00
850.39	43324.00
850.83	43807.00
851.27	43483.00
851.70	42984.00
852.14	42667.00
852.58	41817.00
853.02	40333.00
853.46	39115.00
853.89	39358.00
854.33	39150.00
854.77	40980.00
855.21	43644.00
855.65	44824.00
856.08	45055.00
856.52	45371.00
856.96	45113.00
857.40	44157.00
857.83	43525.00
858.27	42719.00
858.71	41866.00
859.15	41981.00
859.58	42194.00
860.02	42628.00
860.46	43238.00
860.89	43880.00
861.33	44371.00
861.77	44701.00
862.21	45064.00
862.64	45149.00
863.08	45201.00
863.52	44693.00
863.95	43915.00
864.39	43003.00
864.83	41278.00
865.27	39564.00
865.70	39363.00
866.14	38423.00
866.58	38528.00
867.01	40368.00
867.45	41893.00
867.89	42891.00
868.32	43866.00
868.76	44133.00
869.20	44216.00
869.63	44656.00
870.07	43761.00
870.51	42940.00
870.94	41815.00
871.38	40894.00
871.82	40236.00
872.25	39911.00
872.69	39987.00
873.13	40069.00
873.56	40624.00
874.00	41250.00
874.43	41857.00
874.87	42449.00
875.31	42957.00
875.74	43022.00
876.18	43698.00
876.61	43331.00
877.05	42901.00
877.49	42409.00
877.92	41835.00
878.36	40948.00
878.79	40204.00
879.23	39344.00
879.67	38827.00
880.10	38889.00
880.54	38781.00
880.97	39349.00
881.41	40642.00
881.84	41754.00
882.28	42303.00
882.72	42886.00
883.15	43481.00
883.59	43706.00
884.02	43293.00
884.46	43032.00
884.89	42110.00
885.33	41584.00
885.76	40092.00
886.20	39513.00
886.63	38939.00
887.07	38718.00
887.50	38800.00
887.94	38808.00
888.37	39194.00
888.81	39709.00
889.24	40179.00
889.68	40667.00
890.11	41172.00
890.55	41637.00
890.98	41846.00
891.42	42118.00
891.85	41711.00
892.29	41081.00
892.72	40005.00
893.16	38755.00
893.59	37911.00
894.03	36769.00
894.46	35564.00
894.90	34059.00
895.33	32807.00
895.77	33001.00
896.20	32602.00
896.63	32889.00
897.07	32853.00
897.50	32518.00
897.94	32902.00
898.37	34186.00
898.81	31801.00
899.24	31950.00
899.68	33648.00
900.11	32968.00
900.54	32020.00
900.98	31708.00
901.41	31211.00
901.85	31561.00
902.28	31549.00
902.71	32126.00
903.15	33222.00
903.58	34232.00
904.02	34104.00
904.45	34344.00
904.88	34105.00
905.32	33891.00
905.75	33707.00
906.18	32598.00
906.62	32880.00
907.05	32119.00
907.48	32076.00
907.92	31666.00
908.35	31692.00
908.79	31232.00
909.22	30918.00
909.65	30486.00
910.09	30248.00
910.52	29691.00
910.95	29987.00
911.38	30243.00
911.82	28999.00
912.25	29742.00
912.68	30403.00
913.12	30237.00
913.55	30359.00
913.98	31477.00
914.42	32922.00
914.85	32992.00
915.28	31504.00
915.72	30971.00
916.15	30525.00
916.58	30741.00
917.01	29834.00
917.45	28934.00
917.88	29981.00
918.31	30282.00
918.74	31441.00
919.18	31819.00
919.61	31843.00
920.04	32490.00
920.47	32743.00
920.91	33011.00
921.34	32891.00
921.77	33325.00
922.20	33824.00
922.64	33627.00
923.07	33452.00
923.50	33038.00
923.93	32332.00
924.37	32046.00
924.80	31443.00
925.23	31089.00
925.66	29923.00
926.09	28532.00
926.53	27933.00
926.96	26909.00
927.39	25673.00
927.82	24316.00
928.25	23278.00
928.69	22987.00
929.12	22478.00
929.55	21362.00
929.98	20497.00
930.41	19327.00
930.84	18318.00
931.28	16945.00
931.71	15639.00
932.14	13951.00
932.57	13372.00
933.00	12823.00
933.43	12190.00
933.86	11447.00
934.30	10942.00
934.73	12571.00
935.16	11824.00
935.59	11051.00
936.02	11677.00
936.45	11376.00
936.88	11435.00
937.31	12605.00
937.75	13158.00
938.18	13953.00
938.61	14618.00
939.04	15483.00
939.47	14971.00
939.90	13985.00
940.33	13405.00
940.76	12573.00
941.19	11935.00
941.62	11688.00
942.05	11559.00
942.48	10239.00
942.91	10446.00
943.35	11092.00
943.78	10220.00
944.21	10177.00
944.64	11152.00
945.07	11449.00
945.50	11040.00
945.93	11396.00
946.36	11932.00
946.79	12333.00
947.22	13022.00
947.65	12647.00
948.08	12086.00
948.51	13016.00
948.94	13333.00
949.37	12710.00
949.80	12077.00
950.23	12373.00
950.66	13010.00
951.09	12928.00
951.52	12253.00
951.95	12445.00
952.38	12859.00
952.81	13708.00
953.24	14562.00
953.67	14632.00
954.10	14531.00
954.53	15263.00
954.96	15051.00
955.39	15547.00
955.82	16533.00
956.25	15825.00
956.68	16231.00
957.11	16549.00
957.53	15977.00
957.96	15701.00
958.39	15506.00
958.82	14762.00
959.25	15380.00
959.68	16181.00
960.11	16426.00
960.54	16600.00
960.97	17575.00
961.40	18087.00
961.83	17838.00
962.26	18288.00
962.68	19993.00
963.11	20029.00
963.54	20381.00
963.97	20527.00
964.40	20294.00
964.83	20922.00
965.26	21174.00
965.69	20866.00
966.11	20625.00
966.54	20841.00
966.97	21805.00
967.40	21988.00
967.83	21925.00
968.26	22057.00
968.69	22213.00
969.11	22300.00
969.54	22101.00
969.97	22255.00
970.40	22707.00
970.83	22845.00
971.26	22931.00
971.68	23095.00
972.11	23147.00
972.54	23587.00
972.97	23351.00
973.40	23005.00
973.82	23029.00
974.25	22901.00
974.68	22451.00
975.11	22191.00
975.54	21791.00
975.96	21591.00
976.39	21610.00
976.82	21637.00
977.25	21396.00
977.67	21388.00
978.10	21466.00
978.53	21898.00
978.96	22355.00
979.38	22618.00
979.81	23070.00
980.24	24007.00
980.67	24149.00
981.09	24722.00
981.52	24957.00
981.95	24856.00
982.38	25166.00
982.80	25253.00
983.23	25383.00
983.66	25431.00
984.08	25291.00
984.51	24897.00
984.94	24790.00
985.37	24533.00
985.79	23978.00
986.22	23467.00
986.65	23267.00
987.07	23157.00
987.50	22905.00
987.93	23192.00
988.35	23019.00
988.78	23236.00
989.21	23426.00
989.63	23782.00
990.06	24253.00
990.49	24559.00
990.91	24951.00
991.34	25120.00
991.77	25005.00
992.19	25169.00
992.62	25257.00
993.05	24951.00
993.47	24764.00
993.90	24544.00
994.32	24089.00
994.75	23540.00
995.18	23261.00
995.60	22886.00
996.03	22472.00
996.45	22441.00
996.88	22298.00
997.31	21869.00
997.73	21932.00
998.16	22217.00
998.58	22269.00
999.01	22329.00
999.44	22783.00
999.86	22911.00
1000.29	23147.00
1000.71	23416.00
1001.14	23399.00
1001.56	23354.00
1001.99	23140.00
1002.41	22739.00
1002.84	22344.00
1003.27	21978.00
1003.69	21474.00
1004.12	20885.00
1004.54	20663.00
1004.97	20309.00
1005.39	19971.00
1005.82	19885.00
1006.24	19707.00
1006.67	19797.00
1007.09	19668.00
1007.52	19660.00
1007.94	19632.00
1008.37	19794.00
1008.79	19809.00
1009.22	19880.00
1009.64	19965.00
1010.07	20045.00
1010.49	20213.00
1010.92	20127.00
1011.34	20085.00
1011.77	20306.00
1012.19	19960.00
1012.62	19976.00
1013.04	19479.00
1013.46	19265.00
1013.89	18715.00
1014.31	18454.00
1014.74	18214.00
1015.16	17985.00
1015.59	17726.00
1016.01	17708.00
1016.44	17821.00
1016.86	18952.00
1017.28	17977.00
1017.71	18011.00
1018.13	18441.00
1018.56	18503.00
1018.98	18487.00
1019.40	18710.00
1019.83	18694.00
1020.25	19029.00
1020.68	19019.00
1021.10	19250.00
1021.52	19275.00
1021.95	19682.00
1022.37	19494.00
1022.79	19360.00
1023.22	19307.00
1023.64	18893.00
1024.07	18712.00
1024.49	18545.00
1024.91	18076.00
1025.34	17965.00
1025.76	18037.00
1026.18	17597.00
1026.61	17509.00
1027.03	17501.00
1027.45	17502.00
1027.88	17451.00
1028.30	17728.00
1028.72	17771.00
1029.15	17850.00
1029.57	18055.00
1029.99	17963.00
1030.41	17937.00
1030.84	17967.00
1031.26	17787.00
1031.68	17575.00
1032.11	17543.00
1032.53	17317.00
1032.95	17278.00
1033.37	16824.00
1033.80	16775.00
1034.22	16157.00
1034.64	16211.00
1035.06	15783.00
1035.49	15661.00
1035.91	15369.00
1036.33	15173.00
1036.75	15073.00
1037.18	14941.00
1037.60	14979.00
1038.02	14917.00
1038.44	14995.00
1038.87	15147.00
1039.29	15001.00
1039.71	15083.00
1040.13	15039.00
1040.55	15115.00
1040.98	14977.00
1041.40	14892.00
1041.82	14827.00
1042.24	14730.00
1042.66	14397.00
1043.09	14260.00
1043.51	14060.00
1043.93	13946.00
1044.35	13627.00
1044.77	13417.00
1045.20	13338.00
1045.62	13037.00
1046.04	12933.00
1046.46	12915.00
1046.88	12491.00
1047.30	12490.00
1047.72	12366.00
1048.15	12435.00
1048.57	12164.00
1048.99	12170.00
1049.41	12231.00
1049.83	12165.00
1050.25	12155.00
1050.67	12111.00
1051.09	11978.00
1051.52	12022.00
1051.94	11841.00
1052.36	11864.00
1052.78	11764.00
1053.20	11690.00
1053.62	11600.00
1054.04	11458.00
1054.46	11469.00
1054.88	11332.00
1055.30	11237.00
1055.72	11070.00
1056.14	10945.00
1056.57	10913.00
1056.99	10571.00
1057.41	10466.00
1057.83	10269.00
1058.25	10167.00
1058.67	10071.00
1059.09	9919.00
1059.51	9924.00
1059.93	9799.00
1060.35	9643.00
1060.77	9749.00
1061.19	9638.00
1061.61	9501.00
1062.03	9509.00
1062.45	9417.00
1062.87	9478.00
1063.29	9352.00
1063.71	9321.00
1064.13	9232.00
1064.55	9221.00
1064.97	9229.00
1065.39	9095.00
1065.81	9027.00
1066.23	9003.00
1066.65	8812.00
1067.07	8916.00
1067.49	8636.00
1067.91	8491.00
1068.33	8489.00
1068.75	8547.00
1069.17	8427.00
1069.59	8343.00
1070.00	8205.00
1070.42	8190.00
1070.84	8102.00
1071.26	7941.00
1071.68	7915.00
1072.10	7909.00
1072.52	7934.00
1072.94	7832.00
1073.36	7748.00
1073.78	7741.00
1074.20	7791.00
1074.62	7766.00
1075.03	7665.00
1075.45	7629.00
1075.87	7734.00
1076.29	7642.00
1076.71	7575.00
1077.13	7627.00
1077.55	7384.00
1077.97	7386.00
1078.38	7305.00
1078.80	7275.00
1079.22	7191.00
1079.64	7098.00
1080.06	7040.00
1080.48	7040.00
1080.89	6795.00
1081.31	6884.00
1081.73	6819.00
1082.15	6727.00
1082.57	6674.00
1082.99	6681.00
1083.40	6584.00
1083.82	6618.00
1084.24	6495.00
1084.66	6455.00
1085.08	6479.00
1085.49	6353.00
1085.91	6480.00
1086.33	7653.00
1086.75	6387.00
1087.17	6301.00
1087.58	6315.00
1088.00	6279.00
1088.42	6331.00
1088.84	6241.00
1089.25	6233.00
1089.67	6111.00
1090.09	6072.00
1090.51	5997.00
1090.92	5942.00
1091.34	5912.00
1091.76	5753.00
1092.18	5669.00
1092.59	5643.00
1093.01	5632.00
1093.43	5565.00
1093.84	5525.00
1094.26	5509.00
1094.68	5488.00
1095.10	5454.00
1095.51	5391.00
1095.93	5354.00
1096.35	5378.00
1096.76	5380.00
1097.18	5313.00
1097.60	5257.00
1098.01	5195.00
1098.43	5155.00
1098.85	5156.00
1099.26	5084.00
1099.68	5044.00
1100.10	4920.00
1100.51	4893.00
1100.93	4918.00
1101.35	4849.00
1101.76	4840.00
1102.18	5297.00
1102.60	4792.00
1103.01	4657.00
1103.43	4631.00
1103.84	4665.00
1104.26	4567.00
1104.68	4607.00
1105.09	4559.00
1105.51	4502.00
1105.92	4517.00
1106.34	4416.00
1106.76	4423.00
1107.17	4382.00
1107.59	4379.00
1108.00	4238.00
1108.42	4224.00
1108.83	4136.00
1109.25	4151.00
1109.67	4105.00
1110.08	4139.00
1110.50	4056.00
1110.91	4058.00
1111.33	3971.00
1111.74	3990.00
1112.16	3959.00
1112.57	3883.00
1112.99	3818.00
1113.41	3873.00
1113.82	3763.00
1114.24	3722.00
1114.65	3595.00
1115.07	3516.00
1115.48	3387.00
1115.90	2185.00
1116.31	2210.00
1116.73	2215.00
1117.14	2209.00
>>>>>End Processed Spectral Data<<<<<
