SpectraSuite Data File
++++++++++++++++++++++++++++++++++++
Date: Tue May 29 13:10:55 EEST 2018
User: CanSEE
Dark Spectrum Present: No
Reference Spectrum Present: No
Number of Sampled Component Spectra: 1
Spectrometers: MAYP11278
Integration Time (usec): 230000 (MAYP11278)
Spectra Averaged: 1 (MAYP11278)
Boxcar Smoothing: 0 (MAYP11278)
Correct for Electrical Dark: No (MAYP11278)
Strobe/Lamp Enabled: No (MAYP11278)
Correct for Detector Non-linearity: No (MAYP11278)
Correct for Stray Light: No (MAYP11278)
Number of Pixels in Processed Spectrum: 2068
>>>>>Begin Processed Spectral Data<<<<<
187.82	2341.00
188.30	2236.00
188.78	2205.00
189.26	2209.00
189.73	3175.00
190.21	3306.00
190.69	3445.00
191.17	3429.00
191.64	3474.00
192.12	3424.00
192.60	3413.00
193.07	3353.00
193.55	3448.00
194.03	3391.00
194.51	3401.00
194.98	3413.00
195.46	3447.00
195.94	3417.00
196.42	3413.00
196.89	3532.00
197.37	3408.00
197.85	3409.00
198.32	3365.00
198.80	3379.00
199.28	3418.00
199.76	3456.00
200.23	3406.00
200.71	3407.00
201.19	3439.00
201.66	3418.00
202.14	3444.00
202.62	3428.00
203.09	3420.00
203.57	3393.00
204.05	3459.00
204.53	3480.00
205.00	3410.00
205.48	3421.00
205.96	3487.00
206.43	3395.00
206.91	3465.00
207.39	3535.00
207.86	3433.00
208.34	3478.00
208.82	3450.00
209.29	3493.00
209.77	3414.00
210.25	3395.00
210.72	3431.00
211.20	3433.00
211.68	3439.00
212.15	3422.00
212.63	3522.00
213.11	3470.00
213.58	3419.00
214.06	3519.00
214.53	3472.00
215.01	3518.00
215.49	3461.00
215.96	3463.00
216.44	3460.00
216.92	3494.00
217.39	3412.00
217.87	3476.00
218.35	3514.00
218.82	3432.00
219.30	3407.00
219.77	3440.00
220.25	3433.00
220.73	3565.00
221.20	3387.00
221.68	3496.00
222.15	3388.00
222.63	3479.00
223.11	3446.00
223.58	3509.00
224.06	3484.00
224.53	3410.00
225.01	3399.00
225.49	3421.00
225.96	3421.00
226.44	3445.00
226.91	3472.00
227.39	3466.00
227.87	3458.00
228.34	3456.00
228.82	3463.00
229.29	3428.00
229.77	3458.00
230.24	3427.00
230.72	3467.00
231.20	3517.00
231.67	3451.00
232.15	3467.00
232.62	3415.00
233.10	3462.00
233.57	3479.00
234.05	3570.00
234.53	3464.00
235.00	3413.00
235.48	3426.00
235.95	3439.00
236.43	3474.00
236.90	3521.00
237.38	3410.00
237.85	3447.00
238.33	3445.00
238.80	3456.00
239.28	3461.00
239.75	3435.00
240.23	3437.00
240.71	3488.00
241.18	3437.00
241.66	3410.00
242.13	3486.00
242.61	3467.00
243.08	3444.00
243.56	3467.00
244.03	3481.00
244.51	3513.00
244.98	3401.00
245.46	3461.00
245.93	5148.00
246.41	3386.00
246.88	3414.00
247.36	3453.00
247.83	3439.00
248.31	3497.00
248.78	3417.00
249.26	3480.00
249.73	3509.00
250.21	3465.00
250.68	3513.00
251.16	3485.00
251.63	3560.00
252.10	3488.00
252.58	3422.00
253.05	3503.00
253.53	3484.00
254.00	3453.00
254.48	3477.00
254.95	3481.00
255.43	3533.00
255.90	3436.00
256.38	3476.00
256.85	3458.00
257.33	3482.00
257.80	3615.00
258.27	3504.00
258.75	3455.00
259.22	3453.00
259.70	3459.00
260.17	3534.00
260.65	3439.00
261.12	3411.00
261.59	3513.00
262.07	3428.00
262.54	3455.00
263.02	3490.00
263.49	3417.00
263.97	3510.00
264.44	3532.00
264.91	3441.00
265.39	3476.00
265.86	3474.00
266.34	3532.00
266.81	3454.00
267.28	3426.00
267.76	3437.00
268.23	3459.00
268.71	3343.00
269.18	3351.00
269.65	3385.00
270.13	3477.00
270.60	3490.00
271.08	3462.00
271.55	3470.00
272.02	3401.00
272.50	3463.00
272.97	3411.00
273.44	3443.00
273.92	3599.00
274.39	3469.00
274.87	3486.00
275.34	3442.00
275.81	3466.00
276.29	3446.00
276.76	3486.00
277.23	3372.00
277.71	3415.00
278.18	3322.00
278.65	3523.00
279.13	3389.00
279.60	3463.00
280.07	3737.00
280.55	3658.00
281.02	3739.00
281.50	3533.00
281.97	3583.00
282.44	3505.00
282.91	3468.00
283.39	3519.00
283.86	3446.00
284.33	3405.00
284.81	3540.00
285.28	3490.00
285.75	3502.00
286.23	3510.00
286.70	3435.00
287.17	3511.00
287.65	3597.00
288.12	3463.00
288.59	3509.00
289.07	3379.00
289.54	3530.00
290.01	3427.00
290.48	3486.00
290.96	3459.00
291.43	3471.00
291.90	3588.00
292.38	3406.00
292.85	3524.00
293.32	3453.00
293.79	3510.00
294.27	3491.00
294.74	3456.00
295.21	3463.00
295.69	3516.00
296.16	3543.00
296.63	3589.00
297.10	3516.00
297.58	3469.00
298.05	3522.00
298.52	3501.00
298.99	3561.00
299.47	3470.00
299.94	3493.00
300.41	3453.00
300.88	3516.00
301.36	3527.00
301.83	3519.00
302.30	3423.00
302.77	3545.00
303.25	3515.00
303.72	3455.00
304.19	3458.00
304.66	3419.00
305.13	3495.00
305.61	3491.00
306.08	3542.00
306.55	3515.00
307.02	3491.00
307.49	3529.00
307.97	3516.00
308.44	3474.00
308.91	3514.00
309.38	3521.00
309.86	3512.00
310.33	3461.00
310.80	3513.00
311.27	3447.00
311.74	3540.00
312.21	3523.00
312.69	3582.00
313.16	3487.00
313.63	3461.00
314.10	3525.00
314.57	3455.00
315.05	3456.00
315.52	3522.00
315.99	3542.00
316.46	3527.00
316.93	3542.00
317.40	3506.00
317.88	3605.00
318.35	3490.00
318.82	3526.00
319.29	3445.00
319.76	3552.00
320.23	3597.00
320.70	3547.00
321.18	3503.00
321.65	3451.00
322.12	3481.00
322.59	3571.00
323.06	3511.00
323.53	3621.00
324.00	3489.00
324.48	3488.00
324.95	3511.00
325.42	3543.00
325.89	3493.00
326.36	3508.00
326.83	3547.00
327.30	3539.00
327.77	3528.00
328.24	3539.00
328.72	3492.00
329.19	3546.00
329.66	3527.00
330.13	3522.00
330.60	3543.00
331.07	3525.00
331.54	3625.00
332.01	3498.00
332.48	3592.00
332.95	3562.00
333.43	3557.00
333.90	3559.00
334.37	3548.00
334.84	3504.00
335.31	3665.00
335.78	3472.00
336.25	3520.00
336.72	3515.00
337.19	3556.00
337.66	3491.00
338.13	3512.00
338.60	3605.00
339.07	3564.00
339.54	3496.00
340.01	3481.00
340.49	3484.00
340.96	3519.00
341.43	3592.00
341.90	3483.00
342.37	3540.00
342.84	3546.00
343.31	3518.00
343.78	3500.00
344.25	3515.00
344.72	3498.00
345.19	3520.00
345.66	3558.00
346.13	3497.00
346.60	3503.00
347.07	3568.00
347.54	3541.00
348.01	3579.00
348.48	3517.00
348.95	3478.00
349.42	3517.00
349.89	3570.00
350.36	3543.00
350.83	3479.00
351.30	3538.00
351.77	3618.00
352.24	3554.00
352.71	3516.00
353.18	3517.00
353.65	3585.00
354.12	3518.00
354.59	3561.00
355.06	3521.00
355.53	3596.00
356.00	3512.00
356.47	3663.00
356.94	3506.00
357.41	3682.00
357.88	3557.00
358.35	3460.00
358.82	3466.00
359.28	3488.00
359.75	3510.00
360.22	3593.00
360.69	3608.00
361.16	3525.00
361.63	3534.00
362.10	3529.00
362.57	3497.00
363.04	3542.00
363.51	3642.00
363.98	3560.00
364.45	3480.00
364.92	3545.00
365.39	3545.00
365.86	3486.00
366.32	3545.00
366.79	3561.00
367.26	4459.00
367.73	3891.00
368.20	3493.00
368.67	3554.00
369.14	3483.00
369.61	3575.00
370.08	3556.00
370.55	3526.00
371.02	4384.00
371.48	3567.00
371.95	3504.00
372.42	3491.00
372.89	3511.00
373.36	3544.00
373.83	3488.00
374.30	3503.00
374.77	3547.00
375.23	3479.00
375.70	3590.00
376.17	3513.00
376.64	3493.00
377.11	3481.00
377.58	3512.00
378.05	3565.00
378.51	3555.00
378.98	3538.00
379.45	3513.00
379.92	3544.00
380.39	3639.00
380.86	3513.00
381.33	3603.00
381.79	3582.00
382.26	3460.00
382.73	3545.00
383.20	3530.00
383.67	3595.00
384.14	3540.00
384.60	3732.00
385.07	3547.00
385.54	3520.00
386.01	3501.00
386.48	3627.00
386.94	3509.00
387.41	3453.00
387.88	3528.00
388.35	3564.00
388.82	3571.00
389.28	3505.00
389.75	3573.00
390.22	3520.00
390.69	3583.00
391.16	3491.00
391.62	3517.00
392.09	3545.00
392.56	3464.00
393.03	3514.00
393.50	3649.00
393.96	3491.00
394.43	3596.00
394.90	3468.00
395.37	3597.00
395.83	3706.00
396.30	3477.00
396.77	3541.00
397.24	3584.00
397.70	3493.00
398.17	3505.00
398.64	3510.00
399.11	3513.00
399.57	3595.00
400.04	3452.00
400.51	3532.00
400.98	3538.00
401.44	3548.00
401.91	3537.00
402.38	3546.00
402.84	3516.00
403.31	3583.00
403.78	3573.00
404.25	3599.00
404.71	3623.00
405.18	3575.00
405.65	3511.00
406.12	3591.00
406.58	3591.00
407.05	3641.00
407.52	3548.00
407.98	4093.00
408.45	3558.00
408.92	3492.00
409.38	3624.00
409.85	3498.00
410.32	3607.00
410.78	3530.00
411.25	3627.00
411.72	3561.00
412.18	3505.00
412.65	3578.00
413.12	3520.00
413.59	3563.00
414.05	3582.00
414.52	3659.00
414.98	3562.00
415.45	3641.00
415.92	3582.00
416.38	3613.00
416.85	3681.00
417.32	3601.00
417.78	3596.00
418.25	3611.00
418.72	3573.00
419.18	3624.00
419.65	3572.00
420.12	3677.00
420.58	3598.00
421.05	3575.00
421.51	3571.00
421.98	3614.00
422.45	3577.00
422.91	3659.00
423.38	3635.00
423.85	3635.00
424.31	3621.00
424.78	3665.00
425.24	3618.00
425.71	3689.00
426.18	3600.00
426.64	3661.00
427.11	3644.00
427.57	3677.00
428.04	3610.00
428.51	3667.00
428.97	3649.00
429.44	3634.00
429.90	3677.00
430.37	3764.00
430.83	3590.00
431.30	3600.00
431.77	3695.00
432.23	3722.00
432.70	3684.00
433.16	3652.00
433.63	3677.00
434.09	3639.00
434.56	3711.00
435.03	3641.00
435.49	3706.00
435.96	3675.00
436.42	3640.00
436.89	3696.00
437.35	3696.00
437.82	3681.00
438.28	3639.00
438.75	3661.00
439.21	3809.00
439.68	3728.00
440.14	3704.00
440.61	3772.00
441.07	3679.00
441.54	3695.00
442.00	3801.00
442.47	3651.00
442.94	3759.00
443.40	3721.00
443.87	3671.00
444.33	3832.00
444.80	3730.00
445.26	3731.00
445.73	3757.00
446.19	3729.00
446.65	3774.00
447.12	3744.00
447.58	3709.00
448.05	3711.00
448.51	3783.00
448.98	3777.00
449.44	3775.00
449.91	3689.00
450.37	3735.00
450.84	3759.00
451.30	3775.00
451.77	3807.00
452.23	3721.00
452.70	3825.00
453.16	3767.00
453.62	3795.00
454.09	3755.00
454.55	3780.00
455.02	3735.00
455.48	3774.00
455.95	3856.00
456.41	3764.00
456.88	3809.00
457.34	3791.00
457.80	3704.00
458.27	3717.00
458.73	3767.00
459.20	3752.00
459.66	3777.00
460.13	3725.00
460.59	3655.00
461.05	3791.00
461.52	3786.00
461.98	3738.00
462.45	3664.00
462.91	3762.00
463.37	3735.00
463.84	3727.00
464.30	3713.00
464.76	3647.00
465.23	3719.00
465.69	3756.00
466.16	3691.00
466.62	3718.00
467.08	3697.00
467.55	3683.00
468.01	3690.00
468.48	3694.00
468.94	3667.00
469.40	3634.00
469.87	3707.00
470.33	3681.00
470.79	3631.00
471.26	3689.00
471.72	3625.00
472.18	3639.00
472.65	3699.00
473.11	3727.00
473.57	3689.00
474.04	3602.00
474.50	3650.00
474.96	3625.00
475.43	3711.00
475.89	3673.00
476.35	3676.00
476.82	3647.00
477.28	3670.00
477.74	3687.00
478.21	3701.00
478.67	3670.00
479.13	3642.00
479.59	3737.00
480.06	3639.00
480.52	3700.00
480.98	3689.00
481.45	3651.00
481.91	3637.00
482.37	3597.00
482.84	3655.00
483.30	3556.00
483.76	3640.00
484.22	3704.00
484.69	3648.00
485.15	3605.00
485.61	3519.00
486.07	3587.00
486.54	3563.00
487.00	3692.00
487.46	3577.00
487.92	3585.00
488.39	3639.00
488.85	3629.00
489.31	3635.00
489.77	3720.00
490.24	3612.00
490.70	3637.00
491.16	3574.00
491.62	3619.00
492.09	3574.00
492.55	3703.00
493.01	3657.00
493.47	3691.00
493.94	3647.00
494.40	3644.00
494.86	3639.00
495.32	3653.00
495.78	3670.00
496.25	3622.00
496.71	3691.00
497.17	3811.00
497.63	3723.00
498.09	3685.00
498.56	3675.00
499.02	3727.00
499.48	3809.00
499.94	3696.00
500.40	3719.00
500.87	3685.00
501.33	3730.00
501.79	3739.00
502.25	3740.00
502.71	4022.00
503.17	3722.00
503.64	3762.00
504.10	3781.00
504.56	3769.00
505.02	3871.00
505.48	3796.00
505.94	3854.00
506.40	3873.00
506.87	3824.00
507.33	3879.00
507.79	3871.00
508.25	3867.00
508.71	3879.00
509.17	3923.00
509.63	3927.00
510.10	3945.00
510.56	3991.00
511.02	4042.00
511.48	4084.00
511.94	3987.00
512.40	3976.00
512.86	4058.00
513.32	4105.00
513.78	3974.00
514.25	4168.00
514.71	4805.00
515.17	4093.00
515.63	4223.00
516.09	4192.00
516.55	4195.00
517.01	4270.00
517.47	4227.00
517.93	4273.00
518.39	4403.00
518.85	4348.00
519.32	4401.00
519.78	4376.00
520.24	4482.00
520.70	4592.00
521.16	4589.00
521.62	4612.00
522.08	4587.00
522.54	4684.00
523.00	4764.00
523.46	4831.00
523.92	4826.00
524.38	4989.00
524.84	4928.00
525.30	4983.00
525.76	4963.00
526.22	4833.00
526.68	4863.00
527.14	4882.00
527.60	5040.00
528.06	5147.00
528.52	5137.00
528.98	5127.00
529.44	5111.00
529.90	5257.00
530.36	5282.00
530.82	5319.00
531.28	5366.00
531.74	5281.00
532.20	5180.00
532.66	5211.00
533.12	5367.00
533.58	5348.00
534.04	5360.00
534.50	5356.00
534.96	5377.00
535.42	5527.00
535.88	5447.00
536.34	5485.00
536.80	5363.00
537.26	5543.00
537.72	5523.00
538.18	5525.00
538.64	5602.00
539.10	5566.00
539.56	5753.00
540.02	5384.00
540.48	5569.00
540.94	5475.00
541.40	5501.00
541.86	5562.00
542.32	5553.00
542.78	5540.00
543.24	5731.00
543.69	5596.00
544.15	5783.00
544.61	5708.00
545.07	5617.00
545.53	5645.00
545.99	5688.00
546.45	5698.00
546.91	5724.00
547.37	5730.00
547.83	5701.00
548.29	5724.00
548.74	5751.00
549.20	5714.00
549.66	5815.00
550.12	5753.00
550.58	5679.00
551.04	5750.00
551.50	5811.00
551.96	5917.00
552.42	5807.00
552.87	5684.00
553.33	5803.00
553.79	5821.00
554.25	5791.00
554.71	5863.00
555.17	5788.00
555.63	5873.00
556.08	5797.00
556.54	5800.00
557.00	5698.00
557.46	5721.00
557.92	5809.00
558.38	5667.00
558.83	5594.00
559.29	5643.00
559.75	5651.00
560.21	5649.00
560.67	5707.00
561.13	5695.00
561.58	5641.00
562.04	5606.00
562.50	5571.00
562.96	5653.00
563.42	5624.00
563.87	5603.00
564.33	5512.00
564.79	5517.00
565.25	5528.00
565.71	5487.00
566.16	5543.00
566.62	5416.00
567.08	5384.00
567.54	5449.00
568.00	5425.00
568.45	5299.00
568.91	5310.00
569.37	5339.00
569.83	5328.00
570.28	5251.00
570.74	5262.00
571.20	5185.00
571.66	5195.00
572.11	5237.00
572.57	5231.00
573.03	5148.00
573.49	5171.00
573.94	5184.00
574.40	5117.00
574.86	5119.00
575.32	5026.00
575.77	5055.00
576.23	4928.00
576.69	5083.00
577.15	4972.00
577.60	4961.00
578.06	4898.00
578.52	4984.00
578.97	4921.00
579.43	4894.00
579.89	4951.00
580.34	4904.00
580.80	4865.00
581.26	4938.00
581.72	4937.00
582.17	4940.00
582.63	4821.00
583.09	4871.00
583.54	4929.00
584.00	4874.00
584.46	4878.00
584.91	4806.00
585.37	4889.00
585.83	4776.00
586.28	4772.00
586.74	4765.00
587.20	4737.00
587.65	4788.00
588.11	4660.00
588.57	4607.00
589.02	4493.00
589.48	4524.00
589.94	4593.00
590.39	4691.00
590.85	4613.00
591.30	4673.00
591.76	4688.00
592.22	4567.00
592.67	4651.00
593.13	4616.00
593.59	4644.00
594.04	4606.00
594.50	4597.00
594.95	4636.00
595.41	4600.00
595.87	4583.00
596.32	4705.00
596.78	4603.00
597.23	4709.00
597.69	4587.00
598.15	4579.00
598.60	4592.00
599.06	4624.00
599.51	4539.00
599.97	4631.00
600.43	4607.00
600.88	4578.00
601.34	4575.00
601.79	4469.00
602.25	4644.00
602.70	4533.00
603.16	4556.00
603.61	4555.00
604.07	4535.00
604.53	4547.00
604.98	4545.00
605.44	4583.00
605.89	4534.00
606.35	4446.00
606.80	4507.00
607.26	4511.00
607.71	4490.00
608.17	4489.00
608.62	4502.00
609.08	4588.00
609.53	4455.00
609.99	4406.00
610.44	4354.00
610.90	4394.00
611.35	4278.00
611.81	4529.00
612.26	4439.00
612.72	4328.00
613.17	4463.00
613.63	4246.00
614.08	4273.00
614.54	4222.00
614.99	4281.00
615.45	4320.00
615.90	4277.00
616.36	4227.00
616.81	4226.00
617.27	4270.00
617.72	4316.00
618.18	4240.00
618.63	4233.00
619.09	4229.00
619.54	4271.00
619.99	4220.00
620.45	4287.00
620.90	4295.00
621.36	4205.00
621.81	4257.00
622.27	4307.00
622.72	4229.00
623.18	4171.00
623.63	4158.00
624.08	4233.00
624.54	4104.00
624.99	4174.00
625.45	4224.00
625.90	4125.00
626.35	4177.00
626.81	4237.00
627.26	4155.00
627.72	4148.00
628.17	4172.00
628.62	4129.00
629.08	4189.00
629.53	4158.00
629.99	4129.00
630.44	4197.00
630.89	4171.00
631.35	4199.00
631.80	4137.00
632.26	4185.00
632.71	4123.00
633.16	4127.00
633.62	4126.00
634.07	4113.00
634.52	4082.00
634.98	4121.00
635.43	4088.00
635.88	4091.00
636.34	4131.00
636.79	4104.00
637.24	4126.00
637.70	4135.00
638.15	4111.00
638.60	4099.00
639.06	4098.00
639.51	4063.00
639.96	3984.00
640.42	4037.00
640.87	4107.00
641.32	3980.00
641.78	3968.00
642.23	4019.00
642.68	3923.00
643.14	3986.00
643.59	3997.00
644.04	3957.00
644.49	3918.00
644.95	3887.00
645.40	3867.00
645.85	3938.00
646.31	3869.00
646.76	3935.00
647.21	3935.00
647.66	3892.00
648.12	3889.00
648.57	3839.00
649.02	3869.00
649.47	3809.00
649.93	4068.00
650.38	3767.00
650.83	3793.00
651.28	3804.00
651.74	3790.00
652.19	3736.00
652.64	3829.00
653.09	3783.00
653.55	3762.00
654.00	3790.00
654.45	3803.00
654.90	3750.00
655.35	3702.00
655.81	3693.00
656.26	3624.00
656.71	3708.00
657.16	3714.00
657.62	3744.00
658.07	3687.00
658.52	3776.00
658.97	3699.00
659.42	3863.00
659.88	3669.00
660.33	3760.00
660.78	3703.00
661.23	3632.00
661.68	3685.00
662.13	3659.00
662.59	3619.00
663.04	3659.00
663.49	3667.00
663.94	3626.00
664.39	3615.00
664.84	3596.00
665.30	3661.00
665.75	3623.00
666.20	3578.00
666.65	3613.00
667.10	3732.00
667.55	3677.00
668.00	3529.00
668.46	3601.00
668.91	3559.00
669.36	3710.00
669.81	3493.00
670.26	3557.00
670.71	3628.00
671.16	3542.00
671.61	3665.00
672.06	3678.00
672.52	3513.00
672.97	3560.00
673.42	3604.00
673.87	3728.00
674.32	3538.00
674.77	3567.00
675.22	3501.00
675.67	3490.00
676.12	3552.00
676.57	3502.00
677.02	3529.00
677.47	3534.00
677.93	3679.00
678.38	3508.00
678.83	3538.00
679.28	3564.00
679.73	3540.00
680.18	3542.00
680.63	3578.00
681.08	3457.00
681.53	3459.00
681.98	3538.00
682.43	3584.00
682.88	3613.00
683.33	3571.00
683.78	3590.00
684.23	3646.00
684.68	3583.00
685.13	3624.00
685.58	3618.00
686.03	3631.00
686.48	3500.00
686.93	3601.00
687.38	3523.00
687.83	3619.00
688.28	3629.00
688.73	3818.00
689.18	3689.00
689.63	3610.00
690.08	3747.00
690.53	3791.00
690.98	3799.00
691.43	3887.00
691.88	3871.00
692.33	3958.00
692.78	3984.00
693.23	4100.00
693.68	4130.00
694.13	4128.00
694.58	4169.00
695.03	4387.00
695.48	4287.00
695.93	4378.00
696.38	4533.00
696.83	4534.00
697.28	4579.00
697.72	4667.00
698.17	4685.00
698.62	4805.00
699.07	4851.00
699.52	4851.00
699.97	4888.00
700.42	5033.00
700.87	5105.00
701.32	5307.00
701.77	5150.00
702.22	5202.00
702.67	5297.00
703.11	5379.00
703.56	5490.00
704.01	5605.00
704.46	5654.00
704.91	5824.00
705.36	5829.00
705.81	5969.00
706.26	5821.00
706.70	6015.00
707.15	6085.00
707.60	6078.00
708.05	6205.00
708.50	6325.00
708.95	6288.00
709.40	6416.00
709.84	6463.00
710.29	6516.00
710.74	6613.00
711.19	6645.00
711.64	6703.00
712.09	6737.00
712.53	6740.00
712.98	6936.00
713.43	6980.00
713.88	7002.00
714.33	7076.00
714.78	7086.00
715.22	7043.00
715.67	7110.00
716.12	7003.00
716.57	6930.00
717.02	6616.00
717.46	6575.00
717.91	6525.00
718.36	6577.00
718.81	6367.00
719.26	6381.00
719.70	6656.00
720.15	6638.00
720.60	6852.00
721.05	7250.00
721.49	7440.00
721.94	7513.00
722.39	7495.00
722.84	7291.00
723.28	7125.00
723.73	7173.00
724.18	7130.00
724.63	7243.00
725.07	7191.00
725.52	7386.00
725.97	7517.00
726.42	7563.00
726.86	7680.00
727.31	7528.00
727.76	7665.00
728.21	7707.00
728.65	7687.00
729.10	7649.00
729.55	7861.00
729.99	8050.00
730.44	7970.00
730.89	8069.00
731.33	8145.00
731.78	8299.00
732.23	8554.00
732.68	8533.00
733.12	8747.00
733.57	8869.00
734.02	8923.00
734.46	9047.00
734.91	9050.00
735.36	9000.00
735.80	9265.00
736.25	9166.00
736.70	9157.00
737.14	9307.00
737.59	9349.00
738.04	9328.00
738.48	9331.00
738.93	9386.00
739.37	9339.00
739.82	9656.00
740.27	9655.00
740.71	9578.00
741.16	9616.00
741.61	9587.00
742.05	9627.00
742.50	9720.00
742.94	9732.00
743.39	9812.00
743.84	9818.00
744.28	9825.00
744.73	9940.00
745.18	10041.00
745.62	9978.00
746.07	10078.00
746.51	9866.00
746.96	10023.00
747.40	9890.00
747.85	9906.00
748.30	9884.00
748.74	9916.00
749.19	9951.00
749.63	10092.00
750.08	9985.00
750.52	9861.00
750.97	9872.00
751.42	10064.00
751.86	9953.00
752.31	9838.00
752.75	9987.00
753.20	9896.00
753.64	9899.00
754.09	9981.00
754.53	9991.00
754.98	9984.00
755.42	9821.00
755.87	9927.00
756.31	9893.00
756.76	9733.00
757.20	9867.00
757.65	9754.00
758.09	9617.00
758.54	9443.00
758.98	8598.00
759.43	7291.00
759.87	5882.00
760.32	5164.00
760.76	5085.00
761.21	5615.00
761.65	6383.00
762.10	6457.00
762.54	6307.00
762.99	6115.00
763.43	6203.00
763.88	6398.00
764.32	6793.00
764.77	7157.00
765.21	7539.00
765.66	7776.00
766.10	8193.00
766.54	8436.00
766.99	8740.00
767.43	8913.00
767.88	9193.00
768.32	9330.00
768.77	9448.00
769.21	9616.00
769.66	9637.00
770.10	9761.00
770.54	9701.00
770.99	9666.00
771.43	9813.00
771.88	9679.00
772.32	9738.00
772.76	9709.00
773.21	9717.00
773.65	9683.00
774.10	9605.00
774.54	9590.00
774.98	9606.00
775.43	9749.00
775.87	9891.00
776.31	9786.00
776.76	9799.00
777.20	9808.00
777.65	9747.00
778.09	9654.00
778.53	9631.00
778.98	9597.00
779.42	9807.00
779.86	9628.00
780.31	9615.00
780.75	9770.00
781.19	9648.00
781.64	9628.00
782.08	9736.00
782.52	9607.00
782.97	9573.00
783.41	9613.00
783.85	9544.00
784.30	9476.00
784.74	9445.00
785.18	9327.00
785.63	9289.00
786.07	9478.00
786.51	9477.00
786.95	9411.00
787.40	9337.00
787.84	9295.00
788.28	9214.00
788.73	9329.00
789.17	9190.00
789.61	9090.00
790.05	9088.00
790.50	9077.00
790.94	9023.00
791.38	8960.00
791.82	9077.00
792.27	9097.00
792.71	9085.00
793.15	9274.00
793.59	9126.00
794.04	9047.00
794.48	9017.00
794.92	8960.00
795.36	8912.00
795.81	8829.00
796.25	8811.00
796.69	8805.00
797.13	8939.00
797.57	8931.00
798.02	9004.00
798.46	9074.00
798.90	8983.00
799.34	8781.00
799.79	8936.00
800.23	8791.00
800.67	8713.00
801.11	8781.00
801.55	8664.00
801.99	8589.00
802.44	8763.00
802.88	8851.00
803.32	8826.00
803.76	8799.00
804.20	8722.00
804.64	8795.00
805.09	8807.00
805.53	8853.00
805.97	8791.00
806.41	8706.00
806.85	8668.00
807.29	8444.00
807.74	8572.00
808.18	8446.00
808.62	8561.00
809.06	8521.00
809.50	8481.00
809.94	8470.00
810.38	8551.00
810.82	8599.00
811.27	8658.00
811.71	8346.00
812.15	8183.00
812.59	8124.00
813.03	7978.00
813.47	7715.00
813.91	7606.00
814.35	7560.00
814.79	7466.00
815.23	7496.00
815.67	7297.00
816.12	7390.00
816.56	7305.00
817.00	7400.00
817.44	7476.00
817.88	7423.00
818.32	7344.00
818.76	7448.00
819.20	7393.00
819.64	7444.00
820.08	7495.00
820.52	7588.00
820.96	7753.00
821.40	7635.00
821.84	7502.00
822.28	7182.00
822.72	7187.00
823.16	7141.00
823.60	7303.00
824.04	7723.00
824.48	7851.00
824.92	7767.00
825.36	7767.00
825.80	7708.00
826.24	7608.00
826.68	7531.00
827.12	7539.00
827.56	7545.00
828.00	7478.00
828.44	7576.00
828.88	7654.00
829.32	7654.00
829.76	7673.00
830.20	7763.00
830.64	7709.00
831.08	7761.00
831.52	7633.00
831.96	7482.00
832.40	7391.00
832.84	7556.00
833.28	7593.00
833.72	7715.00
834.16	7701.00
834.60	7908.00
835.04	7975.00
835.48	8058.00
835.91	8077.00
836.35	8019.00
836.79	7967.00
837.23	7963.00
837.67	7897.00
838.11	7845.00
838.55	7879.00
838.99	7835.00
839.43	7927.00
839.87	8119.00
840.30	7935.00
840.74	8176.00
841.18	8072.00
841.62	8107.00
842.06	8101.00
842.50	8161.00
842.94	8070.00
843.38	8013.00
843.81	7947.00
844.25	7988.00
844.69	7795.00
845.13	7811.00
845.57	7855.00
846.01	7787.00
846.45	7850.00
846.88	7946.00
847.32	8090.00
847.76	8069.00
848.20	8069.00
848.64	7961.00
849.08	7955.00
849.51	7966.00
849.95	7819.00
850.39	7835.00
850.83	7936.00
851.27	7888.00
851.70	7801.00
852.14	7732.00
852.58	7660.00
853.02	7423.00
853.46	7340.00
853.89	7339.00
854.33	7352.00
854.77	7473.00
855.21	7794.00
855.65	7963.00
856.08	8111.00
856.52	8100.00
856.96	8049.00
857.40	7939.00
857.83	7813.00
858.27	7793.00
858.71	7638.00
859.15	7683.00
859.58	7741.00
860.02	7681.00
860.46	7864.00
860.89	8001.00
861.33	7946.00
861.77	7999.00
862.21	8015.00
862.64	8055.00
863.08	7999.00
863.52	8001.00
863.95	7807.00
864.39	7771.00
864.83	7619.00
865.27	7347.00
865.70	7308.00
866.14	7104.00
866.58	7277.00
867.01	7465.00
867.45	7629.00
867.89	7711.00
868.32	7862.00
868.76	7895.00
869.20	7918.00
869.63	8019.00
870.07	7933.00
870.51	7737.00
870.94	7641.00
871.38	7538.00
871.82	7447.00
872.25	7470.00
872.69	7449.00
873.13	7388.00
873.56	7515.00
874.00	7590.00
874.43	7707.00
874.87	7720.00
875.31	7824.00
875.74	7743.00
876.18	7776.00
876.61	7807.00
877.05	7749.00
877.49	7752.00
877.92	7601.00
878.36	7509.00
878.79	7405.00
879.23	7393.00
879.67	7190.00
880.10	7281.00
880.54	7300.00
880.97	7331.00
881.41	7481.00
881.84	7569.00
882.28	7594.00
882.72	7787.00
883.15	7894.00
883.59	7739.00
884.02	7851.00
884.46	7707.00
884.89	7705.00
885.33	7612.00
885.76	7373.00
886.20	7334.00
886.63	7313.00
887.07	7086.00
887.50	7157.00
887.94	7256.00
888.37	7297.00
888.81	7471.00
889.24	7332.00
889.68	7500.00
890.11	7501.00
890.55	7596.00
890.98	7642.00
891.42	7632.00
891.85	7477.00
892.29	7446.00
892.72	7277.00
893.16	7148.00
893.59	7070.00
894.03	6950.00
894.46	6820.00
894.90	6614.00
895.33	6454.00
895.77	6464.00
896.20	6508.00
896.63	6385.00
897.07	6428.00
897.50	6414.00
897.94	6457.00
898.37	6669.00
898.81	6341.00
899.24	6287.00
899.68	6507.00
900.11	6538.00
900.54	6431.00
900.98	6312.00
901.41	6356.00
901.85	6489.00
902.28	6329.00
902.71	6347.00
903.15	6573.00
903.58	6675.00
904.02	6699.00
904.45	6651.00
904.88	6642.00
905.32	6578.00
905.75	6590.00
906.18	6471.00
906.62	6439.00
907.05	6353.00
907.48	6407.00
907.92	6275.00
908.35	6414.00
908.79	6221.00
909.22	6162.00
909.65	6202.00
910.09	6219.00
910.52	6259.00
910.95	6099.00
911.38	6156.00
911.82	6049.00
912.25	6110.00
912.68	6158.00
913.12	6186.00
913.55	6192.00
913.98	6248.00
914.42	6381.00
914.85	6397.00
915.28	6298.00
915.72	6302.00
916.15	6180.00
916.58	6305.00
917.01	6107.00
917.45	6020.00
917.88	6117.00
918.31	6199.00
918.74	6343.00
919.18	6363.00
919.61	6367.00
920.04	6519.00
920.47	6569.00
920.91	6524.00
921.34	6537.00
921.77	6554.00
922.20	6539.00
922.64	6621.00
923.07	6619.00
923.50	6465.00
923.93	6419.00
924.37	6400.00
924.80	6281.00
925.23	6321.00
925.66	6165.00
926.09	5991.00
926.53	5930.00
926.96	5748.00
927.39	5670.00
927.82	5474.00
928.25	5399.00
928.69	5370.00
929.12	5291.00
929.55	5129.00
929.98	5064.00
930.41	4905.00
930.84	4861.00
931.28	4576.00
931.71	4596.00
932.14	4369.00
932.57	4408.00
933.00	4175.00
933.43	4236.00
933.86	4125.00
934.30	4075.00
934.73	4206.00
935.16	4039.00
935.59	4036.00
936.02	4087.00
936.45	4063.00
936.88	4027.00
937.31	4215.00
937.75	4259.00
938.18	4340.00
938.61	4389.00
939.04	4457.00
939.47	4471.00
939.90	4411.00
940.33	4379.00
940.76	4151.00
941.19	4157.00
941.62	4080.00
942.05	4127.00
942.48	4013.00
942.91	3915.00
943.35	3986.00
943.78	3961.00
944.21	3936.00
944.64	4048.00
945.07	4047.00
945.50	4040.00
945.93	4072.00
946.36	4165.00
946.79	4142.00
947.22	4237.00
947.65	4160.00
948.08	4109.00
948.51	4180.00
948.94	4218.00
949.37	4331.00
949.80	4194.00
950.23	4195.00
950.66	4193.00
951.09	4226.00
951.52	4111.00
951.95	4202.00
952.38	4170.00
952.81	4359.00
953.24	4338.00
953.67	4360.00
954.10	4356.00
954.53	4427.00
954.96	4410.00
955.39	4488.00
955.82	4521.00
956.25	4560.00
956.68	4685.00
957.11	4562.00
957.53	4537.00
957.96	4543.00
958.39	4484.00
958.82	4393.00
959.25	4436.00
959.68	4483.00
960.11	4583.00
960.54	4649.00
960.97	4755.00
961.40	4798.00
961.83	4705.00
962.26	4698.00
962.68	4994.00
963.11	4886.00
963.54	4975.00
963.97	4985.00
964.40	4973.00
964.83	5089.00
965.26	5060.00
965.69	4999.00
966.11	5023.00
966.54	5009.00
966.97	5176.00
967.40	5253.00
967.83	5313.00
968.26	5235.00
968.69	5195.00
969.11	5291.00
969.54	5194.00
969.97	5201.00
970.40	5311.00
970.83	5282.00
971.26	5310.00
971.68	5277.00
972.11	5273.00
972.54	5350.00
972.97	5342.00
973.40	5348.00
973.82	5299.00
974.25	5293.00
974.68	5268.00
975.11	5227.00
975.54	5213.00
975.96	5154.00
976.39	5135.00
976.82	5189.00
977.25	5159.00
977.67	5053.00
978.10	5145.00
978.53	5150.00
978.96	5221.00
979.38	5313.00
979.81	5292.00
980.24	5434.00
980.67	5542.00
981.09	5429.00
981.52	5481.00
981.95	5476.00
982.38	5536.00
982.80	5547.00
983.23	5560.00
983.66	5590.00
984.08	5569.00
984.51	5471.00
984.94	5502.00
985.37	5491.00
985.79	5469.00
986.22	5380.00
986.65	5313.00
987.07	5311.00
987.50	5264.00
987.93	5300.00
988.35	5299.00
988.78	5389.00
989.21	5323.00
989.63	5453.00
990.06	5474.00
990.49	5570.00
990.91	5551.00
991.34	5518.00
991.77	5487.00
992.19	5581.00
992.62	5548.00
993.05	5530.00
993.47	5539.00
993.90	5558.00
994.32	5520.00
994.75	5396.00
995.18	5302.00
995.60	5258.00
996.03	5229.00
996.45	5309.00
996.88	5268.00
997.31	5185.00
997.73	5251.00
998.16	5175.00
998.58	5321.00
999.01	5268.00
999.44	5278.00
999.86	5439.00
1000.29	5337.00
1000.71	5363.00
1001.14	5442.00
1001.56	5424.00
1001.99	5425.00
1002.41	5322.00
1002.84	5286.00
1003.27	5175.00
1003.69	5163.00
1004.12	5131.00
1004.54	5132.00
1004.97	5035.00
1005.39	5015.00
1005.82	4985.00
1006.24	4996.00
1006.67	5022.00
1007.09	4945.00
1007.52	4915.00
1007.94	4965.00
1008.37	5161.00
1008.79	5023.00
1009.22	5013.00
1009.64	5013.00
1010.07	5006.00
1010.49	5076.00
1010.92	5061.00
1011.34	5075.00
1011.77	5075.00
1012.19	5064.00
1012.62	5083.00
1013.04	4930.00
1013.46	5017.00
1013.89	4832.00
1014.31	4891.00
1014.74	4808.00
1015.16	4817.00
1015.59	4771.00
1016.01	4799.00
1016.44	4826.00
1016.86	5628.00
1017.28	4743.00
1017.71	4820.00
1018.13	5035.00
1018.56	4974.00
1018.98	4904.00
1019.40	4916.00
1019.83	4909.00
1020.25	4933.00
1020.68	4932.00
1021.10	5031.00
1021.52	4965.00
1021.95	5139.00
1022.37	5023.00
1022.79	4963.00
1023.22	4981.00
1023.64	4979.00
1024.07	4906.00
1024.49	4927.00
1024.91	4830.00
1025.34	4801.00
1025.76	4935.00
1026.18	4818.00
1026.61	4773.00
1027.03	4747.00
1027.45	4827.00
1027.88	4778.00
1028.30	4893.00
1028.72	4853.00
1029.15	4809.00
1029.57	4844.00
1029.99	4882.00
1030.41	4794.00
1030.84	4924.00
1031.26	4886.00
1031.68	4808.00
1032.11	4861.00
1032.53	4713.00
1032.95	4680.00
1033.37	4743.00
1033.80	4784.00
1034.22	4630.00
1034.64	4709.00
1035.06	4550.00
1035.49	4530.00
1035.91	4571.00
1036.33	4524.00
1036.75	4512.00
1037.18	4561.00
1037.60	4558.00
1038.02	4598.00
1038.44	4611.00
1038.87	4510.00
1039.29	4492.00
1039.71	4542.00
1040.13	4495.00
1040.55	4611.00
1040.98	4578.00
1041.40	4537.00
1041.82	4507.00
1042.24	4515.00
1042.66	4503.00
1043.09	4365.00
1043.51	4421.00
1043.93	4367.00
1044.35	4343.00
1044.77	4413.00
1045.20	4370.00
1045.62	4293.00
1046.04	4296.00
1046.46	4318.00
1046.88	4192.00
1047.30	4345.00
1047.72	4291.00
1048.15	4307.00
1048.57	4171.00
1048.99	4245.00
1049.41	4244.00
1049.83	4264.00
1050.25	4336.00
1050.67	4226.00
1051.09	4176.00
1051.52	4263.00
1051.94	4163.00
1052.36	4223.00
1052.78	4097.00
1053.20	4154.00
1053.62	4165.00
1054.04	4191.00
1054.46	4193.00
1054.88	4254.00
1055.30	4170.00
1055.72	4150.00
1056.14	4144.00
1056.57	4234.00
1056.99	4037.00
1057.41	4047.00
1057.83	4027.00
1058.25	3976.00
1058.67	3989.00
1059.09	3989.00
1059.51	4007.00
1059.93	3979.00
1060.35	3933.00
1060.77	3993.00
1061.19	3998.00
1061.61	3953.00
1062.03	3902.00
1062.45	3865.00
1062.87	3994.00
1063.29	3966.00
1063.71	3921.00
1064.13	3888.00
1064.55	3823.00
1064.97	3949.00
1065.39	3896.00
1065.81	3889.00
1066.23	3896.00
1066.65	3875.00
1067.07	3930.00
1067.49	3857.00
1067.91	3853.00
1068.33	3792.00
1068.75	3856.00
1069.17	3882.00
1069.59	3853.00
1070.00	3805.00
1070.42	3806.00
1070.84	3759.00
1071.26	3721.00
1071.68	3705.00
1072.10	3807.00
1072.52	3811.00
1072.94	3724.00
1073.36	3731.00
1073.78	3732.00
1074.20	3742.00
1074.62	3729.00
1075.03	3705.00
1075.45	3725.00
1075.87	3769.00
1076.29	3746.00
1076.71	3740.00
1077.13	3765.00
1077.55	3661.00
1077.97	3728.00
1078.38	3665.00
1078.80	3643.00
1079.22	3709.00
1079.64	3659.00
1080.06	3642.00
1080.48	3653.00
1080.89	3621.00
1081.31	3615.00
1081.73	3619.00
1082.15	3615.00
1082.57	3667.00
1082.99	3614.00
1083.40	3616.00
1083.82	3693.00
1084.24	3612.00
1084.66	3605.00
1085.08	3644.00
1085.49	3497.00
1085.91	3667.00
1086.33	4835.00
1086.75	3596.00
1087.17	3537.00
1087.58	3601.00
1088.00	3570.00
1088.42	3593.00
1088.84	3530.00
1089.25	3547.00
1089.67	3577.00
1090.09	3543.00
1090.51	3559.00
1090.92	3605.00
1091.34	3496.00
1091.76	3510.00
1092.18	3491.00
1092.59	3499.00
1093.01	3521.00
1093.43	3467.00
1093.84	3469.00
1094.26	3485.00
1094.68	3479.00
1095.10	3464.00
1095.51	3427.00
1095.93	3452.00
1096.35	3507.00
1096.76	3499.00
1097.18	3487.00
1097.60	3460.00
1098.01	3397.00
1098.43	3437.00
1098.85	3420.00
1099.26	3419.00
1099.68	3416.00
1100.10	3406.00
1100.51	3424.00
1100.93	3418.00
1101.35	3414.00
1101.76	3419.00
1102.18	3909.00
1102.60	3456.00
1103.01	3316.00
1103.43	3354.00
1103.84	3391.00
1104.26	3313.00
1104.68	3365.00
1105.09	3348.00
1105.51	3290.00
1105.92	3406.00
1106.34	3311.00
1106.76	3362.00
1107.17	3364.00
1107.59	3393.00
1108.00	3263.00
1108.42	3320.00
1108.83	3283.00
1109.25	3295.00
1109.67	3268.00
1110.08	3302.00
1110.50	3252.00
1110.91	3322.00
1111.33	3266.00
1111.74	3275.00
1112.16	3303.00
1112.57	3299.00
1112.99	3233.00
1113.41	3242.00
1113.82	3251.00
1114.24	3277.00
1114.65	3264.00
1115.07	3176.00
1115.48	3082.00
1115.90	2188.00
1116.31	2214.00
1116.73	2218.00
1117.14	2208.00
>>>>>End Processed Spectral Data<<<<<
