SpectraSuite Data File
++++++++++++++++++++++++++++++++++++
Date: Tue May 29 13:11:13 EEST 2018
User: CanSEE
Dark Spectrum Present: No
Reference Spectrum Present: No
Number of Sampled Component Spectra: 1
Spectrometers: MAYP11278
Integration Time (usec): 230000 (MAYP11278)
Spectra Averaged: 1 (MAYP11278)
Boxcar Smoothing: 0 (MAYP11278)
Correct for Electrical Dark: No (MAYP11278)
Strobe/Lamp Enabled: No (MAYP11278)
Correct for Detector Non-linearity: No (MAYP11278)
Correct for Stray Light: No (MAYP11278)
Number of Pixels in Processed Spectrum: 2068
>>>>>Begin Processed Spectral Data<<<<<
187.82	2337.00
188.30	2234.00
188.78	2213.00
189.26	2211.00
189.73	3275.00
190.21	3431.00
190.69	3527.00
191.17	3572.00
191.64	3640.00
192.12	3561.00
192.60	3556.00
193.07	3543.00
193.55	3579.00
194.03	3535.00
194.51	3612.00
194.98	3577.00
195.46	3619.00
195.94	3597.00
196.42	3590.00
196.89	3673.00
197.37	3607.00
197.85	3553.00
198.32	3524.00
198.80	3574.00
199.28	3585.00
199.76	3653.00
200.23	3563.00
200.71	3552.00
201.19	3627.00
201.66	3571.00
202.14	3589.00
202.62	3488.00
203.09	3595.00
203.57	3562.00
204.05	3612.00
204.53	3633.00
205.00	3585.00
205.48	3574.00
205.96	3639.00
206.43	3583.00
206.91	3612.00
207.39	3695.00
207.86	3575.00
208.34	3577.00
208.82	3576.00
209.29	3597.00
209.77	3597.00
210.25	3560.00
210.72	3545.00
211.20	3590.00
211.68	3550.00
212.15	3540.00
212.63	3707.00
213.11	3583.00
213.58	3552.00
214.06	3678.00
214.53	3598.00
215.01	3673.00
215.49	3607.00
215.96	3615.00
216.44	3634.00
216.92	3585.00
217.39	3565.00
217.87	3563.00
218.35	3631.00
218.82	3528.00
219.30	3536.00
219.77	3570.00
220.25	3543.00
220.73	3687.00
221.20	3574.00
221.68	3608.00
222.15	3536.00
222.63	3643.00
223.11	3595.00
223.58	3646.00
224.06	3559.00
224.53	3550.00
225.01	3549.00
225.49	3563.00
225.96	3548.00
226.44	3593.00
226.91	3572.00
227.39	3514.00
227.87	3590.00
228.34	3600.00
228.82	3642.00
229.29	3589.00
229.77	3595.00
230.24	3589.00
230.72	3631.00
231.20	3626.00
231.67	3565.00
232.15	3553.00
232.62	3491.00
233.10	3550.00
233.57	3576.00
234.05	3769.00
234.53	3586.00
235.00	3565.00
235.48	3545.00
235.95	3571.00
236.43	3651.00
236.90	3671.00
237.38	3552.00
237.85	3539.00
238.33	3565.00
238.80	3570.00
239.28	3580.00
239.75	3509.00
240.23	3603.00
240.71	3647.00
241.18	3565.00
241.66	3585.00
242.13	3562.00
242.61	3617.00
243.08	3535.00
243.56	3544.00
244.03	3619.00
244.51	3614.00
244.98	3591.00
245.46	3633.00
245.93	4951.00
246.41	3498.00
246.88	3570.00
247.36	3583.00
247.83	3604.00
248.31	3621.00
248.78	3528.00
249.26	3596.00
249.73	3626.00
250.21	3605.00
250.68	3667.00
251.16	3629.00
251.63	3648.00
252.10	3621.00
252.58	3552.00
253.05	3653.00
253.53	3597.00
254.00	3635.00
254.48	3603.00
254.95	3607.00
255.43	3685.00
255.90	3571.00
256.38	3615.00
256.85	3625.00
257.33	3659.00
257.80	3744.00
258.27	3629.00
258.75	3573.00
259.22	3596.00
259.70	3584.00
260.17	3659.00
260.65	3595.00
261.12	3593.00
261.59	3649.00
262.07	3562.00
262.54	3640.00
263.02	3562.00
263.49	3561.00
263.97	3620.00
264.44	3630.00
264.91	3618.00
265.39	3618.00
265.86	3596.00
266.34	3649.00
266.81	3620.00
267.28	3598.00
267.76	3628.00
268.23	3615.00
268.71	3543.00
269.18	3550.00
269.65	3543.00
270.13	3623.00
270.60	3626.00
271.08	3585.00
271.55	3601.00
272.02	3543.00
272.50	3547.00
272.97	3559.00
273.44	3582.00
273.92	3702.00
274.39	3605.00
274.87	3603.00
275.34	3571.00
275.81	3587.00
276.29	3568.00
276.76	3615.00
277.23	3511.00
277.71	3525.00
278.18	3499.00
278.65	3634.00
279.13	3507.00
279.60	3560.00
280.07	3863.00
280.55	3799.00
281.02	3920.00
281.50	3699.00
281.97	3724.00
282.44	3669.00
282.91	3657.00
283.39	3633.00
283.86	3632.00
284.33	3589.00
284.81	3669.00
285.28	3650.00
285.75	3589.00
286.23	3627.00
286.70	3524.00
287.17	3650.00
287.65	3705.00
288.12	3607.00
288.59	3619.00
289.07	3568.00
289.54	3699.00
290.01	3604.00
290.48	3619.00
290.96	3580.00
291.43	3632.00
291.90	3672.00
292.38	3613.00
292.85	3667.00
293.32	3619.00
293.79	3628.00
294.27	3627.00
294.74	3591.00
295.21	3646.00
295.69	3673.00
296.16	3736.00
296.63	3685.00
297.10	3625.00
297.58	3653.00
298.05	3632.00
298.52	3589.00
298.99	3707.00
299.47	3609.00
299.94	3685.00
300.41	3634.00
300.88	3644.00
301.36	3653.00
301.83	3655.00
302.30	3579.00
302.77	3690.00
303.25	3657.00
303.72	3579.00
304.19	3598.00
304.66	3570.00
305.13	3623.00
305.61	3636.00
306.08	3677.00
306.55	3627.00
307.02	3605.00
307.49	3573.00
307.97	3614.00
308.44	3535.00
308.91	3675.00
309.38	3637.00
309.86	3601.00
310.33	3608.00
310.80	3643.00
311.27	3628.00
311.74	3650.00
312.21	3649.00
312.69	3733.00
313.16	3570.00
313.63	3613.00
314.10	3633.00
314.57	3623.00
315.05	3543.00
315.52	3666.00
315.99	3669.00
316.46	3625.00
316.93	3662.00
317.40	3630.00
317.88	3773.00
318.35	3579.00
318.82	3610.00
319.29	3588.00
319.76	3673.00
320.23	3722.00
320.70	3671.00
321.18	3631.00
321.65	3534.00
322.12	3562.00
322.59	3716.00
323.06	3649.00
323.53	3725.00
324.00	3548.00
324.48	3639.00
324.95	3638.00
325.42	3608.00
325.89	3644.00
326.36	3640.00
326.83	3683.00
327.30	3703.00
327.77	3676.00
328.24	3694.00
328.72	3663.00
329.19	3635.00
329.66	3652.00
330.13	3665.00
330.60	3665.00
331.07	3703.00
331.54	3742.00
332.01	3649.00
332.48	3745.00
332.95	3703.00
333.43	3731.00
333.90	3755.00
334.37	3723.00
334.84	3721.00
335.31	3852.00
335.78	3620.00
336.25	3667.00
336.72	3652.00
337.19	3665.00
337.66	3631.00
338.13	3649.00
338.60	3696.00
339.07	3663.00
339.54	3610.00
340.01	3616.00
340.49	3573.00
340.96	3629.00
341.43	3679.00
341.90	3593.00
342.37	3619.00
342.84	3608.00
343.31	3594.00
343.78	3598.00
344.25	3595.00
344.72	3582.00
345.19	3573.00
345.66	3653.00
346.13	3582.00
346.60	3525.00
347.07	3697.00
347.54	3585.00
348.01	3656.00
348.48	3588.00
348.95	3558.00
349.42	3599.00
349.89	3600.00
350.36	3603.00
350.83	3578.00
351.30	3597.00
351.77	3626.00
352.24	3679.00
352.71	3583.00
353.18	3592.00
353.65	3695.00
354.12	3602.00
354.59	3624.00
355.06	3627.00
355.53	3689.00
356.00	3578.00
356.47	3683.00
356.94	3554.00
357.41	3750.00
357.88	3671.00
358.35	3549.00
358.82	3611.00
359.28	3551.00
359.75	3596.00
360.22	3697.00
360.69	3683.00
361.16	3603.00
361.63	3610.00
362.10	3611.00
362.57	3605.00
363.04	3614.00
363.51	3731.00
363.98	3636.00
364.45	3577.00
364.92	3637.00
365.39	3567.00
365.86	3552.00
366.32	3628.00
366.79	3576.00
367.26	4796.00
367.73	3954.00
368.20	3593.00
368.67	3694.00
369.14	3554.00
369.61	3715.00
370.08	3615.00
370.55	3615.00
371.02	4462.00
371.48	3648.00
371.95	3600.00
372.42	3549.00
372.89	3591.00
373.36	3614.00
373.83	3551.00
374.30	3591.00
374.77	3633.00
375.23	3574.00
375.70	3732.00
376.17	3567.00
376.64	3586.00
377.11	3597.00
377.58	3634.00
378.05	3637.00
378.51	3651.00
378.98	3657.00
379.45	3648.00
379.92	3639.00
380.39	3769.00
380.86	3619.00
381.33	3729.00
381.79	3663.00
382.26	3605.00
382.73	3641.00
383.20	3618.00
383.67	3651.00
384.14	3677.00
384.60	3899.00
385.07	3605.00
385.54	3576.00
386.01	3601.00
386.48	3735.00
386.94	3561.00
387.41	3585.00
387.88	3645.00
388.35	3632.00
388.82	3663.00
389.28	3602.00
389.75	3651.00
390.22	3647.00
390.69	3671.00
391.16	3613.00
391.62	3699.00
392.09	3577.00
392.56	3601.00
393.03	3620.00
393.50	3729.00
393.96	3667.00
394.43	3687.00
394.90	3644.00
395.37	3663.00
395.83	3869.00
396.30	3603.00
396.77	3665.00
397.24	3673.00
397.70	3617.00
398.17	3645.00
398.64	3629.00
399.11	3652.00
399.57	3723.00
400.04	3564.00
400.51	3658.00
400.98	3614.00
401.44	3689.00
401.91	3721.00
402.38	3676.00
402.84	3639.00
403.31	3752.00
403.78	3652.00
404.25	3746.00
404.71	3732.00
405.18	3740.00
405.65	3672.00
406.12	3748.00
406.58	3729.00
407.05	3807.00
407.52	3705.00
407.98	4251.00
408.45	3730.00
408.92	3650.00
409.38	3786.00
409.85	3704.00
410.32	3792.00
410.78	3744.00
411.25	3841.00
411.72	3728.00
412.18	3703.00
412.65	3808.00
413.12	3793.00
413.59	3805.00
414.05	3829.00
414.52	3902.00
414.98	3849.00
415.45	3915.00
415.92	3897.00
416.38	3871.00
416.85	3974.00
417.32	3908.00
417.78	3928.00
418.25	3919.00
418.72	3905.00
419.18	3983.00
419.65	3895.00
420.12	4016.00
420.58	3970.00
421.05	3989.00
421.51	3972.00
421.98	4041.00
422.45	3954.00
422.91	4046.00
423.38	4097.00
423.85	4112.00
424.31	4081.00
424.78	4102.00
425.24	4081.00
425.71	4207.00
426.18	4108.00
426.64	4173.00
427.11	4114.00
427.57	4183.00
428.04	4109.00
428.51	4241.00
428.97	4145.00
429.44	4100.00
429.90	4100.00
430.37	4232.00
430.83	4116.00
431.30	4213.00
431.77	4345.00
432.23	4315.00
432.70	4287.00
433.16	4303.00
433.63	4287.00
434.09	4259.00
434.56	4412.00
435.03	4347.00
435.49	4441.00
435.96	4413.00
436.42	4413.00
436.89	4467.00
437.35	4448.00
437.82	4409.00
438.28	4399.00
438.75	4385.00
439.21	4604.00
439.68	4518.00
440.14	4522.00
440.61	4605.00
441.07	4553.00
441.54	4629.00
442.00	4771.00
442.47	4575.00
442.94	4661.00
443.40	4695.00
443.87	4626.00
444.33	4806.00
444.80	4749.00
445.26	4700.00
445.73	4635.00
446.19	4705.00
446.65	4778.00
447.12	4813.00
447.58	4815.00
448.05	4856.00
448.51	4915.00
448.98	4908.00
449.44	4872.00
449.91	4979.00
450.37	4937.00
450.84	4997.00
451.30	5012.00
451.77	5040.00
452.23	4939.00
452.70	4991.00
453.16	5014.00
453.62	5044.00
454.09	5101.00
454.55	5100.00
455.02	4994.00
455.48	5069.00
455.95	5122.00
456.41	5183.00
456.88	5203.00
457.34	5179.00
457.80	5175.00
458.27	5025.00
458.73	5161.00
459.20	5164.00
459.66	5179.00
460.13	5157.00
460.59	5181.00
461.05	5346.00
461.52	5269.00
461.98	5250.00
462.45	5245.00
462.91	5257.00
463.37	5197.00
463.84	5233.00
464.30	5195.00
464.76	5123.00
465.23	5170.00
465.69	5320.00
466.16	5180.00
466.62	5203.00
467.08	5191.00
467.55	5209.00
468.01	5285.00
468.48	5243.00
468.94	5225.00
469.40	5180.00
469.87	5223.00
470.33	5193.00
470.79	5236.00
471.26	5242.00
471.72	5310.00
472.18	5237.00
472.65	5277.00
473.11	5368.00
473.57	5341.00
474.04	5329.00
474.50	5367.00
474.96	5327.00
475.43	5364.00
475.89	5362.00
476.35	5407.00
476.82	5453.00
477.28	5431.00
477.74	5543.00
478.21	5451.00
478.67	5512.00
479.13	5470.00
479.59	5576.00
480.06	5495.00
480.52	5587.00
480.98	5564.00
481.45	5491.00
481.91	5527.00
482.37	5509.00
482.84	5497.00
483.30	5536.00
483.76	5514.00
484.22	5573.00
484.69	5496.00
485.15	5386.00
485.61	5162.00
486.07	5183.00
486.54	5307.00
487.00	5343.00
487.46	5409.00
487.92	5459.00
488.39	5512.00
488.85	5585.00
489.31	5623.00
489.77	5770.00
490.24	5667.00
490.70	5665.00
491.16	5564.00
491.62	5548.00
492.09	5514.00
492.55	5724.00
493.01	5816.00
493.47	5804.00
493.94	5861.00
494.40	5900.00
494.86	5903.00
495.32	5935.00
495.78	5972.00
496.25	6020.00
496.71	6105.00
497.17	6197.00
497.63	6178.00
498.09	6037.00
498.56	6147.00
499.02	6199.00
499.48	6370.00
499.94	6203.00
500.40	6187.00
500.87	6243.00
501.33	6394.00
501.79	6441.00
502.25	6607.00
502.71	6931.00
503.17	6636.00
503.64	6699.00
504.10	6726.00
504.56	6976.00
505.02	7045.00
505.48	7118.00
505.94	7350.00
506.40	7355.00
506.87	7391.00
507.33	7468.00
507.79	7537.00
508.25	7649.00
508.71	7961.00
509.17	8013.00
509.63	8052.00
510.10	8125.00
510.56	8397.00
511.02	8603.00
511.48	8838.00
511.94	8723.00
512.40	8848.00
512.86	8997.00
513.32	9210.00
513.78	9201.00
514.25	9514.00
514.71	10455.00
515.17	9819.00
515.63	10079.00
516.09	9946.00
516.55	9637.00
517.01	9834.00
517.47	10325.00
517.93	10483.00
518.39	10903.00
518.85	11252.00
519.32	11686.00
519.78	12054.00
520.24	12415.00
520.70	12723.00
521.16	13076.00
521.62	13329.00
522.08	13449.00
522.54	13425.00
523.00	14079.00
523.46	14501.00
523.92	14959.00
524.38	15309.00
524.84	15339.00
525.30	15510.00
525.76	15628.00
526.22	15126.00
526.68	15034.00
527.14	15608.00
527.60	16231.00
528.06	16893.00
528.52	17355.00
528.98	17739.00
529.44	17654.00
529.90	17822.00
530.36	18327.00
530.82	18701.00
531.28	18777.00
531.74	18587.00
532.20	18472.00
532.66	18211.00
533.12	18835.00
533.58	19221.00
534.04	19144.00
534.50	19555.00
534.96	19969.00
535.42	20483.00
535.88	20473.00
536.34	20056.00
536.80	19840.00
537.26	20374.00
537.72	20779.00
538.18	20793.00
538.64	20808.00
539.10	20716.00
539.56	20690.00
540.02	20434.00
540.48	20541.00
540.94	20887.00
541.40	21356.00
541.86	21555.00
542.32	21543.00
542.78	21521.00
543.24	21809.00
543.69	22082.00
544.15	22308.00
544.61	22119.00
545.07	22305.00
545.53	22444.00
545.99	22601.00
546.45	22545.00
546.91	22640.00
547.37	22385.00
547.83	22561.00
548.29	23001.00
548.74	23283.00
549.20	23168.00
549.66	23401.00
550.12	23349.00
550.58	23175.00
551.04	23417.00
551.50	23731.00
551.96	24121.00
552.42	23721.00
552.87	23450.00
553.33	24043.00
553.79	23915.00
554.25	24185.00
554.71	24282.00
555.17	24249.00
555.63	24267.00
556.08	23866.00
556.54	23582.00
557.00	23528.00
557.46	23757.00
557.92	23821.00
558.38	23274.00
558.83	22915.00
559.29	23094.00
559.75	23061.00
560.21	23303.00
560.67	23829.00
561.13	23383.00
561.58	22891.00
562.04	22951.00
562.50	23224.00
562.96	23187.00
563.42	23028.00
563.87	22867.00
564.33	22795.00
564.79	22693.00
565.25	22370.00
565.71	21894.00
566.16	22064.00
566.62	22166.00
567.08	22280.00
567.54	21929.00
568.00	21706.00
568.45	21157.00
568.91	21285.00
569.37	21177.00
569.83	20946.00
570.28	20462.00
570.74	20107.00
571.20	20202.00
571.66	20558.00
572.11	20589.00
572.57	20409.00
573.03	20316.00
573.49	20347.00
573.94	20061.00
574.40	19795.00
574.86	19518.00
575.32	19346.00
575.77	19198.00
576.23	19078.00
576.69	19159.00
577.15	19010.00
577.60	18634.00
578.06	18421.00
578.52	18418.00
578.97	18541.00
579.43	18484.00
579.89	18485.00
580.34	18411.00
580.80	18322.00
581.26	18264.00
581.72	18207.00
582.17	18306.00
582.63	18289.00
583.09	18069.00
583.54	18220.00
584.00	18105.00
584.46	17970.00
584.91	17585.00
585.37	17588.00
585.83	17307.00
586.28	17328.00
586.74	17515.00
587.20	17393.00
587.65	17292.00
588.11	16739.00
588.57	16066.00
589.02	15327.00
589.48	15469.00
589.94	16091.00
590.39	16503.00
590.85	16541.00
591.30	16270.00
591.76	16431.00
592.22	16366.00
592.67	16414.00
593.13	16399.00
593.59	16412.00
594.04	16247.00
594.50	16140.00
594.95	16120.00
595.41	16268.00
595.87	16340.00
596.32	16269.00
596.78	16312.00
597.23	16204.00
597.69	16167.00
598.15	16098.00
598.60	16060.00
599.06	16255.00
599.51	16127.00
599.97	16061.00
600.43	16094.00
600.88	15872.00
601.34	16067.00
601.79	15743.00
602.25	15862.00
602.70	15979.00
603.16	16045.00
603.61	15986.00
604.07	15725.00
604.53	15982.00
604.98	15858.00
605.44	15782.00
605.89	15631.00
606.35	15379.00
606.80	15583.00
607.26	15349.00
607.71	15203.00
608.17	15172.00
608.62	15137.00
609.08	14997.00
609.53	14939.00
609.99	14622.00
610.44	14443.00
610.90	14683.00
611.35	14604.00
611.81	14534.00
612.26	14432.00
612.72	14346.00
613.17	14371.00
613.63	13911.00
614.08	13939.00
614.54	13959.00
614.99	13864.00
615.45	13771.00
615.90	13488.00
616.36	13228.00
616.81	13308.00
617.27	13393.00
617.72	13391.00
618.18	13528.00
618.63	13311.00
619.09	13264.00
619.54	13451.00
619.99	13432.00
620.45	13519.00
620.90	13394.00
621.36	13132.00
621.81	13219.00
622.27	13287.00
622.72	13050.00
623.18	12976.00
623.63	12959.00
624.08	13006.00
624.54	12744.00
624.99	12814.00
625.45	12845.00
625.90	12729.00
626.35	12863.00
626.81	13024.00
627.26	12846.00
627.72	12591.00
628.17	12514.00
628.62	12739.00
629.08	12785.00
629.53	12659.00
629.99	12614.00
630.44	12756.00
630.89	12737.00
631.35	12578.00
631.80	12551.00
632.26	12700.00
632.71	12669.00
633.16	12758.00
633.62	12677.00
634.07	12606.00
634.52	12587.00
634.98	12725.00
635.43	12600.00
635.88	12345.00
636.34	12338.00
636.79	12444.00
637.24	12341.00
637.70	12490.00
638.15	12303.00
638.60	12162.00
639.06	12131.00
639.51	11810.00
639.96	11771.00
640.42	11850.00
640.87	11687.00
641.32	11405.00
641.78	11416.00
642.23	11230.00
642.68	11216.00
643.14	11106.00
643.59	11092.00
644.04	10859.00
644.49	10792.00
644.95	10698.00
645.40	10440.00
645.85	10328.00
646.31	10272.00
646.76	10158.00
647.21	10119.00
647.66	9975.00
648.12	9863.00
648.57	9698.00
649.02	9735.00
649.47	9466.00
649.93	9761.00
650.38	9571.00
650.83	9606.00
651.28	9447.00
651.74	9269.00
652.19	9395.00
652.64	9409.00
653.09	9333.00
653.55	9295.00
654.00	9307.00
654.45	9175.00
654.90	8984.00
655.35	8617.00
655.81	8343.00
656.26	7901.00
656.71	8126.00
657.16	8547.00
657.62	8574.00
658.07	8600.00
658.52	8537.00
658.97	8461.00
659.42	8609.00
659.88	8302.00
660.33	8347.00
660.78	8291.00
661.23	8157.00
661.68	8142.00
662.13	7993.00
662.59	7838.00
663.04	7741.00
663.49	7649.00
663.94	7568.00
664.39	7584.00
664.84	7484.00
665.30	7458.00
665.75	7211.00
666.20	7285.00
666.65	7116.00
667.10	7246.00
667.55	7174.00
668.00	6964.00
668.46	7038.00
668.91	6904.00
669.36	6992.00
669.81	6784.00
670.26	6769.00
670.71	6856.00
671.16	6735.00
671.61	6695.00
672.06	6737.00
672.52	6640.00
672.97	6654.00
673.42	6711.00
673.87	6741.00
674.32	6626.00
674.77	6568.00
675.22	6443.00
675.67	6495.00
676.12	6540.00
676.57	6487.00
677.02	6520.00
677.47	6555.00
677.93	6621.00
678.38	6477.00
678.83	6487.00
679.28	6552.00
679.73	6489.00
680.18	6526.00
680.63	6521.00
681.08	6517.00
681.53	6586.00
681.98	6632.00
682.43	6759.00
682.88	6930.00
683.33	6874.00
683.78	6967.00
684.23	7120.00
684.68	7205.00
685.13	7296.00
685.58	7312.00
686.03	7415.00
686.48	7195.00
686.93	6884.00
687.38	7033.00
687.83	7523.00
688.28	7925.00
688.73	8291.00
689.18	8414.00
689.63	8674.00
690.08	9156.00
690.53	9591.00
690.98	9978.00
691.43	10434.00
691.88	10839.00
692.33	11480.00
692.78	11934.00
693.23	12466.00
693.68	12953.00
694.13	13478.00
694.58	14127.00
695.03	14993.00
695.48	15533.00
695.93	16295.00
696.38	17255.00
696.83	18034.00
697.28	18773.00
697.72	19215.00
698.17	19838.00
698.62	20411.00
699.07	21194.00
699.52	21808.00
699.97	22473.00
700.42	23075.00
700.87	24127.00
701.32	24734.00
701.77	25112.00
702.22	25877.00
702.67	26630.00
703.11	27622.00
703.56	28547.00
704.01	29276.00
704.46	30211.00
704.91	30931.00
705.36	31435.00
705.81	32031.00
706.26	32437.00
706.70	33233.00
707.15	33842.00
707.60	34763.00
708.05	35327.00
708.50	35883.00
708.95	36350.00
709.40	37095.00
709.84	37437.00
710.29	38029.00
710.74	38478.00
711.19	38814.00
711.64	39653.00
712.09	40158.00
712.53	40561.00
712.98	40995.00
713.43	41558.00
713.88	42004.00
714.33	41993.00
714.78	41838.00
715.22	42367.00
715.67	42689.00
716.12	42195.00
716.57	40738.00
717.02	39039.00
717.46	38211.00
717.91	38061.00
718.36	37187.00
718.81	36824.00
719.26	37006.00
719.70	37564.00
720.15	38263.00
720.60	39885.00
721.05	42985.00
721.49	44684.00
721.94	45733.00
722.39	45461.00
722.84	44708.00
723.28	42965.00
723.73	42305.00
724.18	42460.00
724.63	43066.00
725.07	43339.00
725.52	44066.00
725.97	44719.00
726.42	45226.00
726.86	45835.00
727.31	45179.00
727.76	45509.00
728.21	46577.00
728.65	46243.00
729.10	45863.00
729.55	47144.00
729.99	47970.00
730.44	48206.00
730.89	48657.00
731.33	49692.00
731.78	50715.00
732.23	52120.00
732.68	52919.00
733.12	53377.00
733.57	54515.00
734.02	55272.00
734.46	55808.00
734.91	55894.00
735.36	55873.00
735.80	56356.00
736.25	56558.00
736.70	56954.00
737.14	57468.00
737.59	57968.00
738.04	57604.00
738.48	57203.00
738.93	57365.00
739.37	57965.00
739.82	58659.00
740.27	59174.00
740.71	58924.00
741.16	58800.00
741.61	59299.00
742.05	59106.00
742.50	59656.00
742.94	59937.00
743.39	60423.00
743.84	60240.00
744.28	60218.00
744.73	60504.00
745.18	61079.00
745.62	61424.00
746.07	61137.00
746.51	61259.00
746.96	61183.00
747.40	60706.00
747.85	60716.00
748.30	60577.00
748.74	60553.00
749.19	60414.00
749.63	60603.00
750.08	60784.00
750.52	60802.00
750.97	60458.00
751.42	60405.00
751.86	60715.00
752.31	60400.00
752.75	59753.00
753.20	60250.00
753.64	60180.00
754.09	60226.00
754.53	60494.00
754.98	60301.00
755.42	60287.00
755.87	59984.00
756.31	59914.00
756.76	59422.00
757.20	58958.00
757.65	58562.00
758.09	57600.00
758.54	55949.00
758.98	50062.00
759.43	39269.00
759.87	27669.00
760.32	20849.00
760.76	20325.00
761.21	25365.00
761.65	31289.00
762.10	32996.00
762.54	31262.00
762.99	29696.00
763.43	30328.00
763.88	32394.00
764.32	35237.00
764.77	38312.00
765.21	41341.00
765.66	43711.00
766.10	46485.00
766.54	48538.00
766.99	51008.00
767.43	52542.00
767.88	53912.00
768.32	55068.00
768.77	55807.00
769.21	56762.00
769.66	57452.00
770.10	58131.00
770.54	58541.00
770.99	58381.00
771.43	58323.00
771.88	58334.00
772.32	58148.00
772.76	58020.00
773.21	57975.00
773.65	57909.00
774.10	57494.00
774.54	57568.00
774.98	57644.00
775.43	58437.00
775.87	58766.00
776.31	58916.00
776.76	58877.00
777.20	58375.00
777.65	58123.00
778.09	57877.00
778.53	57394.00
778.98	57519.00
779.42	57008.00
779.86	57289.00
780.31	57080.00
780.75	57478.00
781.19	57701.00
781.64	57875.00
782.08	58187.00
782.52	57976.00
782.97	57116.00
783.41	56657.00
783.85	56260.00
784.30	56036.00
784.74	55766.00
785.18	55553.00
785.63	55534.00
786.07	55915.00
786.51	55844.00
786.95	56037.00
787.40	55906.00
787.84	55444.00
788.28	55060.00
788.73	54858.00
789.17	54131.00
789.61	53723.00
790.05	53457.00
790.50	52963.00
790.94	53026.00
791.38	52801.00
791.82	53027.00
792.27	52993.00
792.71	52936.00
793.15	53398.00
793.59	53278.00
794.04	53048.00
794.48	52599.00
794.92	52133.00
795.36	51790.00
795.81	51413.00
796.25	51329.00
796.69	51356.00
797.13	52197.00
797.57	52436.00
798.02	52897.00
798.46	53077.00
798.90	52692.00
799.34	52037.00
799.79	51577.00
800.23	50966.00
800.67	50321.00
801.11	50170.00
801.55	49973.00
801.99	50017.00
802.44	50098.00
802.88	50460.00
803.32	50774.00
803.76	51137.00
804.20	50946.00
804.64	50939.00
805.09	51180.00
805.53	50835.00
805.97	50536.00
806.41	49796.00
806.85	49449.00
807.29	48921.00
807.74	48846.00
808.18	48574.00
808.62	48700.00
809.06	48680.00
809.50	48839.00
809.94	49028.00
810.38	49030.00
810.82	48805.00
811.27	48495.00
811.71	47737.00
812.15	47208.00
812.59	45509.00
813.03	44370.00
813.47	43071.00
813.91	41915.00
814.35	41147.00
814.79	40773.00
815.23	40409.00
815.67	39733.00
816.12	40183.00
816.56	39852.00
817.00	40256.00
817.44	40628.00
817.88	40615.00
818.32	39876.00
818.76	40352.00
819.20	40139.00
819.64	40529.00
820.08	41174.00
820.52	41921.00
820.96	42785.00
821.40	42065.00
821.84	40542.00
822.28	38575.00
822.72	38070.00
823.16	38113.00
823.60	40150.00
824.04	42947.00
824.48	43547.00
824.92	43439.00
825.36	43525.00
825.80	42619.00
826.24	42458.00
826.68	42051.00
827.12	41910.00
827.56	40866.00
828.00	40928.00
828.44	41290.00
828.88	41936.00
829.32	42226.00
829.76	42376.00
830.20	43397.00
830.64	42444.00
831.08	42512.00
831.52	41627.00
831.96	41092.00
832.40	40557.00
832.84	41133.00
833.28	41721.00
833.72	42247.00
834.16	43003.00
834.60	44248.00
835.04	44723.00
835.48	44940.00
835.91	44954.00
836.35	44623.00
836.79	44499.00
837.23	44319.00
837.67	43539.00
838.11	43364.00
838.55	43447.00
838.99	43377.00
839.43	43942.00
839.87	44181.00
840.30	44825.00
840.74	45373.00
841.18	45878.00
841.62	46303.00
842.06	46128.00
842.50	46179.00
842.94	45352.00
843.38	44980.00
843.81	44130.00
844.25	43673.00
844.69	43451.00
845.13	43109.00
845.57	43420.00
846.01	43431.00
846.45	43973.00
846.88	44591.00
847.32	45277.00
847.76	45466.00
848.20	45711.00
848.64	45006.00
849.08	44373.00
849.51	44121.00
849.95	43122.00
850.39	43139.00
850.83	43876.00
851.27	43492.00
851.70	42982.00
852.14	42501.00
852.58	41920.00
853.02	40190.00
853.46	39181.00
853.89	39269.00
854.33	39172.00
854.77	40853.00
855.21	43384.00
855.65	44868.00
856.08	45333.00
856.52	45540.00
856.96	45032.00
857.40	44111.00
857.83	43359.00
858.27	42650.00
858.71	41936.00
859.15	41933.00
859.58	42156.00
860.02	42668.00
860.46	42926.00
860.89	43881.00
861.33	44336.00
861.77	44788.00
862.21	45117.00
862.64	45331.00
863.08	45384.00
863.52	44777.00
863.95	43915.00
864.39	43181.00
864.83	41405.00
865.27	39619.00
865.70	39339.00
866.14	38421.00
866.58	38497.00
867.01	40535.00
867.45	42030.00
867.89	43008.00
868.32	43753.00
868.76	44168.00
869.20	44294.00
869.63	44685.00
870.07	43884.00
870.51	42865.00
870.94	41898.00
871.38	41044.00
871.82	40254.00
872.25	40055.00
872.69	40207.00
873.13	40173.00
873.56	40748.00
874.00	41171.00
874.43	41893.00
874.87	42414.00
875.31	43056.00
875.74	43171.00
876.18	43529.00
876.61	43353.00
877.05	42955.00
877.49	42251.00
877.92	41903.00
878.36	40977.00
878.79	40254.00
879.23	39425.00
879.67	38910.00
880.10	39110.00
880.54	38908.00
880.97	39371.00
881.41	40487.00
881.84	41705.00
882.28	42344.00
882.72	43052.00
883.15	43424.00
883.59	43709.00
884.02	43344.00
884.46	42932.00
884.89	42253.00
885.33	41285.00
885.76	40263.00
886.20	39495.00
886.63	38955.00
887.07	38486.00
887.50	38863.00
887.94	38856.00
888.37	39267.00
888.81	39949.00
889.24	40092.00
889.68	40589.00
890.11	41050.00
890.55	41666.00
890.98	41876.00
891.42	41999.00
891.85	41638.00
892.29	40991.00
892.72	39982.00
893.16	38839.00
893.59	37886.00
894.03	36844.00
894.46	35464.00
894.90	34321.00
895.33	32932.00
895.77	33016.00
896.20	32557.00
896.63	32777.00
897.07	32739.00
897.50	32563.00
897.94	32999.00
898.37	34171.00
898.81	31774.00
899.24	31930.00
899.68	33682.00
900.11	32761.00
900.54	32115.00
900.98	31511.00
901.41	31309.00
901.85	31623.00
902.28	31789.00
902.71	32054.00
903.15	33297.00
903.58	34365.00
904.02	34301.00
904.45	34326.00
904.88	33940.00
905.32	33702.00
905.75	33778.00
906.18	32631.00
906.62	32845.00
907.05	32016.00
907.48	32188.00
907.92	31831.00
908.35	31567.00
908.79	31079.00
909.22	30872.00
909.65	30479.00
910.09	30275.00
910.52	29819.00
910.95	30091.00
911.38	30260.00
911.82	29056.00
912.25	29940.00
912.68	30562.00
913.12	30394.00
913.55	30624.00
913.98	31510.00
914.42	32730.00
914.85	32959.00
915.28	31465.00
915.72	31111.00
916.15	30769.00
916.58	30857.00
917.01	29876.00
917.45	29031.00
917.88	29763.00
918.31	30315.00
918.74	31410.00
919.18	31820.00
919.61	31984.00
920.04	32377.00
920.47	32811.00
920.91	33044.00
921.34	32874.00
921.77	33342.00
922.20	33796.00
922.64	33660.00
923.07	33395.00
923.50	33010.00
923.93	32505.00
924.37	31967.00
924.80	31510.00
925.23	31114.00
925.66	29942.00
926.09	28535.00
926.53	27899.00
926.96	26910.00
927.39	25657.00
927.82	24463.00
928.25	23365.00
928.69	23022.00
929.12	22476.00
929.55	21227.00
929.98	20583.00
930.41	19330.00
930.84	18297.00
931.28	17071.00
931.71	15582.00
932.14	13997.00
932.57	13417.00
933.00	12777.00
933.43	12315.00
933.86	11418.00
934.30	10954.00
934.73	12452.00
935.16	11867.00
935.59	10951.00
936.02	11621.00
936.45	11333.00
936.88	11543.00
937.31	12645.00
937.75	13233.00
938.18	13978.00
938.61	14631.00
939.04	15551.00
939.47	15023.00
939.90	14051.00
940.33	13465.00
940.76	12532.00
941.19	12014.00
941.62	11708.00
942.05	11544.00
942.48	10290.00
942.91	10412.00
943.35	11178.00
943.78	10207.00
944.21	10106.00
944.64	11184.00
945.07	11331.00
945.50	11117.00
945.93	11429.00
946.36	11849.00
946.79	12283.00
947.22	12934.00
947.65	12579.00
948.08	12133.00
948.51	12941.00
948.94	13345.00
949.37	12703.00
949.80	12013.00
950.23	12399.00
950.66	13023.00
951.09	12899.00
951.52	12313.00
951.95	12385.00
952.38	12858.00
952.81	13635.00
953.24	14504.00
953.67	14711.00
954.10	14436.00
954.53	15185.00
954.96	14970.00
955.39	15421.00
955.82	16447.00
956.25	15744.00
956.68	16143.00
957.11	16501.00
957.53	15814.00
957.96	15861.00
958.39	15498.00
958.82	14744.00
959.25	15397.00
959.68	16178.00
960.11	16368.00
960.54	16693.00
960.97	17405.00
961.40	18201.00
961.83	17790.00
962.26	18281.00
962.68	19869.00
963.11	20194.00
963.54	20187.00
963.97	20520.00
964.40	20294.00
964.83	20922.00
965.26	21059.00
965.69	20857.00
966.11	20606.00
966.54	20867.00
966.97	21774.00
967.40	22115.00
967.83	21847.00
968.26	22121.00
968.69	22330.00
969.11	22418.00
969.54	22253.00
969.97	22230.00
970.40	22718.00
970.83	22671.00
971.26	23032.00
971.68	22984.00
972.11	23213.00
972.54	23576.00
972.97	23470.00
973.40	22969.00
973.82	23004.00
974.25	22946.00
974.68	22731.00
975.11	22285.00
975.54	21875.00
975.96	21458.00
976.39	21631.00
976.82	21711.00
977.25	21517.00
977.67	21457.00
978.10	21469.00
978.53	21727.00
978.96	22330.00
979.38	22698.00
979.81	23196.00
980.24	23864.00
980.67	24349.00
981.09	24588.00
981.52	24810.00
981.95	24905.00
982.38	25135.00
982.80	25286.00
983.23	25446.00
983.66	25665.00
984.08	25437.00
984.51	25000.00
984.94	24864.00
985.37	24359.00
985.79	24026.00
986.22	23565.00
986.65	23234.00
987.07	23059.00
987.50	23120.00
987.93	23094.00
988.35	23037.00
988.78	23205.00
989.21	23444.00
989.63	23856.00
990.06	24047.00
990.49	24655.00
990.91	24951.00
991.34	25211.00
991.77	25299.00
992.19	25201.00
992.62	24941.00
993.05	25057.00
993.47	24778.00
993.90	24575.00
994.32	24135.00
994.75	23527.00
995.18	23175.00
995.60	22988.00
996.03	22649.00
996.45	22453.00
996.88	22095.00
997.31	22049.00
997.73	21996.00
998.16	22174.00
998.58	22367.00
999.01	22368.00
999.44	22735.00
999.86	22949.00
1000.29	23069.00
1000.71	23271.00
1001.14	23496.00
1001.56	23423.00
1001.99	23150.00
1002.41	22859.00
1002.84	22399.00
1003.27	21890.00
1003.69	21512.00
1004.12	20905.00
1004.54	20511.00
1004.97	20351.00
1005.39	19961.00
1005.82	19927.00
1006.24	19761.00
1006.67	19649.00
1007.09	19661.00
1007.52	19751.00
1007.94	19809.00
1008.37	19953.00
1008.79	20005.00
1009.22	19965.00
1009.64	19980.00
1010.07	20051.00
1010.49	20091.00
1010.92	20147.00
1011.34	20046.00
1011.77	20069.00
1012.19	20139.00
1012.62	19903.00
1013.04	19498.00
1013.46	19235.00
1013.89	18650.00
1014.31	18559.00
1014.74	18077.00
1015.16	17954.00
1015.59	17708.00
1016.01	17727.00
1016.44	17908.00
1016.86	18989.00
1017.28	17930.00
1017.71	18043.00
1018.13	18443.00
1018.56	18471.00
1018.98	18587.00
1019.40	18695.00
1019.83	18838.00
1020.25	19056.00
1020.68	19018.00
1021.10	19211.00
1021.52	19284.00
1021.95	19515.00
1022.37	19467.00
1022.79	19413.00
1023.22	19127.00
1023.64	18894.00
1024.07	18705.00
1024.49	18462.00
1024.91	18244.00
1025.34	17980.00
1025.76	17949.00
1026.18	17719.00
1026.61	17505.00
1027.03	17529.00
1027.45	17600.00
1027.88	17528.00
1028.30	17794.00
1028.72	17745.00
1029.15	17927.00
1029.57	17751.00
1029.99	18074.00
1030.41	17963.00
1030.84	18085.00
1031.26	17907.00
1031.68	17751.00
1032.11	17534.00
1032.53	17434.00
1032.95	17093.00
1033.37	17027.00
1033.80	16651.00
1034.22	16267.00
1034.64	16156.00
1035.06	15811.00
1035.49	15479.00
1035.91	15382.00
1036.33	15153.00
1036.75	15064.00
1037.18	15057.00
1037.60	15018.00
1038.02	14859.00
1038.44	14984.00
1038.87	14995.00
1039.29	14901.00
1039.71	14959.00
1040.13	15055.00
1040.55	15249.00
1040.98	15111.00
1041.40	15076.00
1041.82	14951.00
1042.24	14644.00
1042.66	14421.00
1043.09	14238.00
1043.51	14071.00
1043.93	13757.00
1044.35	13642.00
1044.77	13424.00
1045.20	13221.00
1045.62	13000.00
1046.04	12812.00
1046.46	12744.00
1046.88	12635.00
1047.30	12499.00
1047.72	12411.00
1048.15	12372.00
1048.57	12279.00
1048.99	12207.00
1049.41	12191.00
1049.83	12133.00
1050.25	12075.00
1050.67	12064.00
1051.09	12075.00
1051.52	11960.00
1051.94	11882.00
1052.36	11933.00
1052.78	11768.00
1053.20	11678.00
1053.62	11625.00
1054.04	11529.00
1054.46	11314.00
1054.88	11399.00
1055.30	11160.00
1055.72	11039.00
1056.14	10991.00
1056.57	10921.00
1056.99	10517.00
1057.41	10397.00
1057.83	10300.00
1058.25	10186.00
1058.67	10120.00
1059.09	9920.00
1059.51	9920.00
1059.93	9790.00
1060.35	9650.00
1060.77	9706.00
1061.19	9579.00
1061.61	9550.00
1062.03	9494.00
1062.45	9397.00
1062.87	9439.00
1063.29	9376.00
1063.71	9348.00
1064.13	9331.00
1064.55	9283.00
1064.97	9155.00
1065.39	9145.00
1065.81	8977.00
1066.23	8939.00
1066.65	8787.00
1067.07	8942.00
1067.49	8635.00
1067.91	8520.00
1068.33	8467.00
1068.75	8481.00
1069.17	8395.00
1069.59	8333.00
1070.00	8207.00
1070.42	8246.00
1070.84	8143.00
1071.26	7939.00
1071.68	7905.00
1072.10	8045.00
1072.52	7872.00
1072.94	7833.00
1073.36	7809.00
1073.78	7708.00
1074.20	7775.00
1074.62	7742.00
1075.03	7642.00
1075.45	7752.00
1075.87	7737.00
1076.29	7572.00
1076.71	7647.00
1077.13	7678.00
1077.55	7456.00
1077.97	7404.00
1078.38	7351.00
1078.80	7248.00
1079.22	7226.00
1079.64	7100.00
1080.06	7005.00
1080.48	6975.00
1080.89	6846.00
1081.31	6845.00
1081.73	6751.00
1082.15	6670.00
1082.57	6795.00
1082.99	6599.00
1083.40	6529.00
1083.82	6674.00
1084.24	6499.00
1084.66	6468.00
1085.08	6410.00
1085.49	6362.00
1085.91	6490.00
1086.33	7700.00
1086.75	6427.00
1087.17	6340.00
1087.58	6389.00
1088.00	6302.00
1088.42	6257.00
1088.84	6233.00
1089.25	6180.00
1089.67	6064.00
1090.09	6081.00
1090.51	5942.00
1090.92	5963.00
1091.34	5853.00
1091.76	5814.00
1092.18	5749.00
1092.59	5633.00
1093.01	5669.00
1093.43	5593.00
1093.84	5525.00
1094.26	5469.00
1094.68	5467.00
1095.10	5429.00
1095.51	5426.00
1095.93	5321.00
1096.35	5370.00
1096.76	5339.00
1097.18	5277.00
1097.60	5265.00
1098.01	5221.00
1098.43	5148.00
1098.85	5183.00
1099.26	5102.00
1099.68	5000.00
1100.10	4915.00
1100.51	4913.00
1100.93	4807.00
1101.35	4832.00
1101.76	4802.00
1102.18	5265.00
1102.60	4721.00
1103.01	4631.00
1103.43	4713.00
1103.84	4671.00
1104.26	4561.00
1104.68	4586.00
1105.09	4527.00
1105.51	4508.00
1105.92	4583.00
1106.34	4420.00
1106.76	4472.00
1107.17	4402.00
1107.59	4371.00
1108.00	4218.00
1108.42	4255.00
1108.83	4170.00
1109.25	4161.00
1109.67	4084.00
1110.08	4110.00
1110.50	4031.00
1110.91	4041.00
1111.33	3978.00
1111.74	3957.00
1112.16	3938.00
1112.57	3937.00
1112.99	3845.00
1113.41	3828.00
1113.82	3744.00
1114.24	3699.00
1114.65	3616.00
1115.07	3515.00
1115.48	3383.00
1115.90	2185.00
1116.31	2216.00
1116.73	2211.00
1117.14	2216.00
>>>>>End Processed Spectral Data<<<<<
