SpectraSuite Data File
++++++++++++++++++++++++++++++++++++
Date: Tue May 29 13:10:38 EEST 2018
User: CanSEE
Dark Spectrum Present: No
Reference Spectrum Present: No
Number of Sampled Component Spectra: 1
Spectrometers: MAYP11278
Integration Time (usec): 230000 (MAYP11278)
Spectra Averaged: 1 (MAYP11278)
Boxcar Smoothing: 0 (MAYP11278)
Correct for Electrical Dark: No (MAYP11278)
Strobe/Lamp Enabled: No (MAYP11278)
Correct for Detector Non-linearity: No (MAYP11278)
Correct for Stray Light: No (MAYP11278)
Number of Pixels in Processed Spectrum: 2068
>>>>>Begin Processed Spectral Data<<<<<
187.82	2338.00
188.30	2230.00
188.78	2213.00
189.26	2207.00
189.73	3199.00
190.21	3334.00
190.69	3393.00
191.17	3412.00
191.64	3424.00
192.12	3425.00
192.60	3358.00
193.07	3354.00
193.55	3385.00
194.03	3419.00
194.51	3403.00
194.98	3352.00
195.46	3451.00
195.94	3411.00
196.42	3372.00
196.89	3530.00
197.37	3420.00
197.85	3382.00
198.32	3373.00
198.80	3396.00
199.28	3431.00
199.76	3444.00
200.23	3399.00
200.71	3373.00
201.19	3464.00
201.66	3448.00
202.14	3413.00
202.62	3345.00
203.09	3420.00
203.57	3368.00
204.05	3483.00
204.53	3482.00
205.00	3397.00
205.48	3383.00
205.96	3492.00
206.43	3404.00
206.91	3393.00
207.39	3509.00
207.86	3457.00
208.34	3413.00
208.82	3397.00
209.29	3455.00
209.77	3422.00
210.25	3417.00
210.72	3437.00
211.20	3476.00
211.68	3421.00
212.15	3433.00
212.63	3505.00
213.11	3415.00
213.58	3425.00
214.06	3515.00
214.53	3425.00
215.01	3481.00
215.49	3445.00
215.96	3458.00
216.44	3454.00
216.92	3476.00
217.39	3437.00
217.87	3404.00
218.35	3460.00
218.82	3375.00
219.30	3434.00
219.77	3387.00
220.25	3434.00
220.73	3579.00
221.20	3412.00
221.68	3490.00
222.15	3406.00
222.63	3441.00
223.11	3393.00
223.58	3465.00
224.06	3424.00
224.53	3397.00
225.01	3404.00
225.49	3420.00
225.96	3387.00
226.44	3415.00
226.91	3497.00
227.39	3449.00
227.87	3445.00
228.34	3459.00
228.82	3479.00
229.29	3438.00
229.77	3417.00
230.24	3413.00
230.72	3455.00
231.20	3520.00
231.67	3465.00
232.15	3408.00
232.62	3430.00
233.10	3424.00
233.57	3433.00
234.05	3583.00
234.53	3429.00
235.00	3415.00
235.48	3413.00
235.95	3433.00
236.43	3457.00
236.90	3524.00
237.38	3415.00
237.85	3472.00
238.33	3443.00
238.80	3450.00
239.28	3435.00
239.75	3363.00
240.23	3478.00
240.71	3508.00
241.18	3449.00
241.66	3448.00
242.13	3467.00
242.61	3482.00
243.08	3381.00
243.56	3423.00
244.03	3477.00
244.51	3485.00
244.98	3411.00
245.46	3511.00
245.93	5185.00
246.41	3381.00
246.88	3445.00
247.36	3456.00
247.83	3457.00
248.31	3442.00
248.78	3403.00
249.26	3435.00
249.73	3470.00
250.21	3465.00
250.68	3507.00
251.16	3456.00
251.63	3532.00
252.10	3503.00
252.58	3441.00
253.05	3509.00
253.53	3479.00
254.00	3453.00
254.48	3425.00
254.95	3461.00
255.43	3493.00
255.90	3411.00
256.38	3458.00
256.85	3451.00
257.33	3512.00
257.80	3531.00
258.27	3446.00
258.75	3411.00
259.22	3472.00
259.70	3460.00
260.17	3511.00
260.65	3469.00
261.12	3439.00
261.59	3497.00
262.07	3457.00
262.54	3483.00
263.02	3455.00
263.49	3407.00
263.97	3467.00
264.44	3524.00
264.91	3445.00
265.39	3461.00
265.86	3486.00
266.34	3512.00
266.81	3470.00
267.28	3480.00
267.76	3483.00
268.23	3439.00
268.71	3349.00
269.18	3402.00
269.65	3413.00
270.13	3465.00
270.60	3522.00
271.08	3431.00
271.55	3451.00
272.02	3411.00
272.50	3415.00
272.97	3406.00
273.44	3464.00
273.92	3579.00
274.39	3475.00
274.87	3438.00
275.34	3406.00
275.81	3419.00
276.29	3451.00
276.76	3451.00
277.23	3373.00
277.71	3363.00
278.18	3341.00
278.65	3503.00
279.13	3363.00
279.60	3436.00
280.07	3737.00
280.55	3660.00
281.02	3763.00
281.50	3507.00
281.97	3573.00
282.44	3471.00
282.91	3517.00
283.39	3471.00
283.86	3504.00
284.33	3445.00
284.81	3499.00
285.28	3485.00
285.75	3483.00
286.23	3479.00
286.70	3431.00
287.17	3501.00
287.65	3581.00
288.12	3464.00
288.59	3439.00
289.07	3367.00
289.54	3534.00
290.01	3437.00
290.48	3475.00
290.96	3413.00
291.43	3503.00
291.90	3576.00
292.38	3415.00
292.85	3527.00
293.32	3459.00
293.79	3516.00
294.27	3507.00
294.74	3461.00
295.21	3479.00
295.69	3475.00
296.16	3563.00
296.63	3530.00
297.10	3510.00
297.58	3507.00
298.05	3473.00
298.52	3460.00
298.99	3518.00
299.47	3470.00
299.94	3490.00
300.41	3429.00
300.88	3515.00
301.36	3491.00
301.83	3483.00
302.30	3447.00
302.77	3525.00
303.25	3526.00
303.72	3409.00
304.19	3462.00
304.66	3431.00
305.13	3497.00
305.61	3507.00
306.08	3466.00
306.55	3511.00
307.02	3475.00
307.49	3462.00
307.97	3505.00
308.44	3470.00
308.91	3535.00
309.38	3522.00
309.86	3501.00
310.33	3498.00
310.80	3528.00
311.27	3454.00
311.74	3507.00
312.21	3486.00
312.69	3538.00
313.16	3464.00
313.63	3499.00
314.10	3492.00
314.57	3504.00
315.05	3457.00
315.52	3525.00
315.99	3543.00
316.46	3505.00
316.93	3543.00
317.40	3498.00
317.88	3592.00
318.35	3498.00
318.82	3455.00
319.29	3464.00
319.76	3550.00
320.23	3550.00
320.70	3528.00
321.18	3501.00
321.65	3447.00
322.12	3456.00
322.59	3639.00
323.06	3490.00
323.53	3637.00
324.00	3449.00
324.48	3513.00
324.95	3483.00
325.42	3500.00
325.89	3490.00
326.36	3508.00
326.83	3563.00
327.30	3548.00
327.77	3479.00
328.24	3554.00
328.72	3474.00
329.19	3497.00
329.66	3520.00
330.13	3488.00
330.60	3556.00
331.07	3578.00
331.54	3618.00
332.01	3462.00
332.48	3623.00
332.95	3523.00
333.43	3537.00
333.90	3586.00
334.37	3526.00
334.84	3547.00
335.31	3719.00
335.78	3459.00
336.25	3542.00
336.72	3489.00
337.19	3524.00
337.66	3460.00
338.13	3525.00
338.60	3567.00
339.07	3564.00
339.54	3473.00
340.01	3481.00
340.49	3481.00
340.96	3510.00
341.43	3572.00
341.90	3490.00
342.37	3528.00
342.84	3496.00
343.31	3496.00
343.78	3483.00
344.25	3501.00
344.72	3507.00
345.19	3539.00
345.66	3538.00
346.13	3534.00
346.60	3451.00
347.07	3623.00
347.54	3518.00
348.01	3585.00
348.48	3574.00
348.95	3447.00
349.42	3511.00
349.89	3494.00
350.36	3525.00
350.83	3466.00
351.30	3542.00
351.77	3643.00
352.24	3552.00
352.71	3488.00
353.18	3521.00
353.65	3525.00
354.12	3491.00
354.59	3555.00
355.06	3563.00
355.53	3587.00
356.00	3475.00
356.47	3620.00
356.94	3507.00
357.41	3634.00
357.88	3522.00
358.35	3478.00
358.82	3492.00
359.28	3538.00
359.75	3487.00
360.22	3549.00
360.69	3591.00
361.16	3501.00
361.63	3513.00
362.10	3569.00
362.57	3507.00
363.04	3539.00
363.51	3632.00
363.98	3533.00
364.45	3486.00
364.92	3545.00
365.39	3489.00
365.86	3513.00
366.32	3528.00
366.79	3502.00
367.26	4446.00
367.73	3830.00
368.20	3477.00
368.67	3584.00
369.14	3482.00
369.61	3584.00
370.08	3544.00
370.55	3481.00
371.02	4378.00
371.48	3519.00
371.95	3497.00
372.42	3488.00
372.89	3516.00
373.36	3523.00
373.83	3468.00
374.30	3463.00
374.77	3544.00
375.23	3458.00
375.70	3597.00
376.17	3504.00
376.64	3464.00
377.11	3483.00
377.58	3516.00
378.05	3503.00
378.51	3493.00
378.98	3524.00
379.45	3464.00
379.92	3534.00
380.39	3643.00
380.86	3513.00
381.33	3615.00
381.79	3571.00
382.26	3493.00
382.73	3522.00
383.20	3509.00
383.67	3542.00
384.14	3508.00
384.60	3737.00
385.07	3490.00
385.54	3545.00
386.01	3494.00
386.48	3622.00
386.94	3513.00
387.41	3475.00
387.88	3517.00
388.35	3522.00
388.82	3566.00
389.28	3491.00
389.75	3584.00
390.22	3525.00
390.69	3538.00
391.16	3531.00
391.62	3520.00
392.09	3507.00
392.56	3469.00
393.03	3510.00
393.50	3616.00
393.96	3544.00
394.43	3557.00
394.90	3474.00
395.37	3550.00
395.83	3763.00
396.30	3509.00
396.77	3559.00
397.24	3541.00
397.70	3497.00
398.17	3522.00
398.64	3506.00
399.11	3507.00
399.57	3577.00
400.04	3486.00
400.51	3521.00
400.98	3501.00
401.44	3549.00
401.91	3489.00
402.38	3502.00
402.84	3489.00
403.31	3607.00
403.78	3545.00
404.25	3591.00
404.71	3671.00
405.18	3585.00
405.65	3468.00
406.12	3547.00
406.58	3556.00
407.05	3615.00
407.52	3556.00
407.98	4091.00
408.45	3515.00
408.92	3464.00
409.38	3585.00
409.85	3473.00
410.32	3610.00
410.78	3502.00
411.25	3624.00
411.72	3557.00
412.18	3462.00
412.65	3549.00
413.12	3538.00
413.59	3565.00
414.05	3555.00
414.52	3660.00
414.98	3563.00
415.45	3669.00
415.92	3557.00
416.38	3565.00
416.85	3654.00
417.32	3585.00
417.78	3559.00
418.25	3586.00
418.72	3573.00
419.18	3610.00
419.65	3535.00
420.12	3639.00
420.58	3535.00
421.05	3601.00
421.51	3587.00
421.98	3579.00
422.45	3537.00
422.91	3617.00
423.38	3643.00
423.85	3566.00
424.31	3612.00
424.78	3639.00
425.24	3585.00
425.71	3647.00
426.18	3610.00
426.64	3665.00
427.11	3648.00
427.57	3669.00
428.04	3584.00
428.51	3666.00
428.97	3568.00
429.44	3618.00
429.90	3615.00
430.37	3734.00
430.83	3553.00
431.30	3622.00
431.77	3683.00
432.23	3711.00
432.70	3608.00
433.16	3605.00
433.63	3625.00
434.09	3639.00
434.56	3681.00
435.03	3596.00
435.49	3667.00
435.96	3669.00
436.42	3626.00
436.89	3734.00
437.35	3645.00
437.82	3679.00
438.28	3649.00
438.75	3583.00
439.21	3820.00
439.68	3657.00
440.14	3691.00
440.61	3725.00
441.07	3693.00
441.54	3685.00
442.00	3851.00
442.47	3622.00
442.94	3683.00
443.40	3753.00
443.87	3648.00
444.33	3752.00
444.80	3732.00
445.26	3754.00
445.73	3650.00
446.19	3728.00
446.65	3696.00
447.12	3727.00
447.58	3704.00
448.05	3658.00
448.51	3735.00
448.98	3755.00
449.44	3733.00
449.91	3713.00
450.37	3712.00
450.84	3701.00
451.30	3761.00
451.77	3752.00
452.23	3675.00
452.70	3816.00
453.16	3744.00
453.62	3731.00
454.09	3720.00
454.55	3780.00
455.02	3726.00
455.48	3701.00
455.95	3804.00
456.41	3724.00
456.88	3799.00
457.34	3734.00
457.80	3725.00
458.27	3640.00
458.73	3731.00
459.20	3685.00
459.66	3745.00
460.13	3656.00
460.59	3676.00
461.05	3766.00
461.52	3735.00
461.98	3664.00
462.45	3679.00
462.91	3727.00
463.37	3688.00
463.84	3663.00
464.30	3675.00
464.76	3642.00
465.23	3681.00
465.69	3710.00
466.16	3699.00
466.62	3721.00
467.08	3655.00
467.55	3601.00
468.01	3633.00
468.48	3657.00
468.94	3657.00
469.40	3588.00
469.87	3643.00
470.33	3644.00
470.79	3619.00
471.26	3633.00
471.72	3633.00
472.18	3626.00
472.65	3634.00
473.11	3701.00
473.57	3650.00
474.04	3621.00
474.50	3601.00
474.96	3580.00
475.43	3624.00
475.89	3609.00
476.35	3643.00
476.82	3595.00
477.28	3611.00
477.74	3701.00
478.21	3553.00
478.67	3685.00
479.13	3575.00
479.59	3687.00
480.06	3661.00
480.52	3660.00
480.98	3594.00
481.45	3639.00
481.91	3632.00
482.37	3590.00
482.84	3618.00
483.30	3585.00
483.76	3581.00
484.22	3711.00
484.69	3583.00
485.15	3587.00
485.61	3483.00
486.07	3581.00
486.54	3510.00
487.00	3615.00
487.46	3470.00
487.92	3546.00
488.39	3599.00
488.85	3631.00
489.31	3586.00
489.77	3651.00
490.24	3553.00
490.70	3649.00
491.16	3569.00
491.62	3543.00
492.09	3538.00
492.55	3661.00
493.01	3659.00
493.47	3647.00
493.94	3610.00
494.40	3639.00
494.86	3633.00
495.32	3581.00
495.78	3656.00
496.25	3655.00
496.71	3675.00
497.17	3686.00
497.63	3689.00
498.09	3635.00
498.56	3677.00
499.02	3655.00
499.48	3798.00
499.94	3667.00
500.40	3617.00
500.87	3665.00
501.33	3642.00
501.79	3705.00
502.25	3721.00
502.71	4007.00
503.17	3681.00
503.64	3733.00
504.10	3715.00
504.56	3790.00
505.02	3758.00
505.48	3796.00
505.94	3800.00
506.40	3847.00
506.87	3831.00
507.33	3829.00
507.79	3870.00
508.25	3807.00
508.71	3835.00
509.17	3850.00
509.63	3871.00
510.10	3905.00
510.56	3883.00
511.02	3978.00
511.48	4054.00
511.94	3957.00
512.40	3946.00
512.86	3938.00
513.32	4077.00
513.78	3992.00
514.25	4148.00
514.71	4788.00
515.17	4064.00
515.63	4139.00
516.09	4165.00
516.55	4126.00
517.01	4199.00
517.47	4161.00
517.93	4179.00
518.39	4399.00
518.85	4317.00
519.32	4307.00
519.78	4349.00
520.24	4399.00
520.70	4463.00
521.16	4502.00
521.62	4573.00
522.08	4543.00
522.54	4577.00
523.00	4705.00
523.46	4709.00
523.92	4719.00
524.38	4877.00
524.84	4789.00
525.30	4818.00
525.76	4832.00
526.22	4765.00
526.68	4741.00
527.14	4812.00
527.60	4911.00
528.06	4985.00
528.52	5070.00
528.98	5116.00
529.44	4991.00
529.90	5145.00
530.36	5160.00
530.82	5187.00
531.28	5246.00
531.74	5165.00
532.20	5162.00
532.66	5185.00
533.12	5235.00
533.58	5215.00
534.04	5239.00
534.50	5331.00
534.96	5277.00
535.42	5439.00
535.88	5399.00
536.34	5410.00
536.80	5245.00
537.26	5386.00
537.72	5383.00
538.18	5362.00
538.64	5501.00
539.10	5457.00
539.56	5701.00
540.02	5324.00
540.48	5413.00
540.94	5423.00
541.40	5376.00
541.86	5429.00
542.32	5513.00
542.78	5447.00
543.24	5620.00
543.69	5475.00
544.15	5667.00
544.61	5596.00
545.07	5570.00
545.53	5562.00
545.99	5587.00
546.45	5567.00
546.91	5555.00
547.37	5570.00
547.83	5600.00
548.29	5652.00
548.74	5608.00
549.20	5591.00
549.66	5725.00
550.12	5703.00
550.58	5565.00
551.04	5626.00
551.50	5666.00
551.96	5802.00
552.42	5661.00
552.87	5624.00
553.33	5759.00
553.79	5691.00
554.25	5662.00
554.71	5735.00
555.17	5697.00
555.63	5815.00
556.08	5628.00
556.54	5689.00
557.00	5596.00
557.46	5599.00
557.92	5711.00
558.38	5517.00
558.83	5487.00
559.29	5521.00
559.75	5533.00
560.21	5538.00
560.67	5694.00
561.13	5565.00
561.58	5477.00
562.04	5478.00
562.50	5511.00
562.96	5530.00
563.42	5581.00
563.87	5402.00
564.33	5533.00
564.79	5433.00
565.25	5397.00
565.71	5401.00
566.16	5412.00
566.62	5399.00
567.08	5319.00
567.54	5395.00
568.00	5349.00
568.45	5215.00
568.91	5274.00
569.37	5234.00
569.83	5258.00
570.28	5170.00
570.74	5141.00
571.20	5166.00
571.66	5120.00
572.11	5185.00
572.57	5167.00
573.03	5029.00
573.49	5063.00
573.94	5069.00
574.40	5128.00
574.86	5055.00
575.32	4968.00
575.77	4961.00
576.23	4827.00
576.69	5014.00
577.15	4941.00
577.60	4841.00
578.06	4814.00
578.52	4930.00
578.97	4831.00
579.43	4829.00
579.89	4955.00
580.34	4833.00
580.80	4859.00
581.26	4825.00
581.72	4777.00
582.17	4838.00
582.63	4812.00
583.09	4790.00
583.54	4858.00
584.00	4807.00
584.46	4777.00
584.91	4693.00
585.37	4819.00
585.83	4713.00
586.28	4695.00
586.74	4701.00
587.20	4758.00
587.65	4754.00
588.11	4617.00
588.57	4569.00
589.02	4429.00
589.48	4445.00
589.94	4583.00
590.39	4584.00
590.85	4553.00
591.30	4612.00
591.76	4633.00
592.22	4540.00
592.67	4593.00
593.13	4602.00
593.59	4689.00
594.04	4520.00
594.50	4531.00
594.95	4580.00
595.41	4563.00
595.87	4507.00
596.32	4649.00
596.78	4572.00
597.23	4611.00
597.69	4543.00
598.15	4475.00
598.60	4547.00
599.06	4599.00
599.51	4541.00
599.97	4567.00
600.43	4575.00
600.88	4544.00
601.34	4547.00
601.79	4439.00
602.25	4685.00
602.70	4471.00
603.16	4557.00
603.61	4469.00
604.07	4449.00
604.53	4521.00
604.98	4521.00
605.44	4532.00
605.89	4477.00
606.35	4442.00
606.80	4501.00
607.26	4504.00
607.71	4457.00
608.17	4441.00
608.62	4415.00
609.08	4533.00
609.53	4473.00
609.99	4359.00
610.44	4341.00
610.90	4391.00
611.35	4262.00
611.81	4480.00
612.26	4396.00
612.72	4316.00
613.17	4437.00
613.63	4260.00
614.08	4300.00
614.54	4206.00
614.99	4298.00
615.45	4257.00
615.90	4243.00
616.36	4219.00
616.81	4223.00
617.27	4241.00
617.72	4301.00
618.18	4269.00
618.63	4208.00
619.09	4169.00
619.54	4220.00
619.99	4265.00
620.45	4257.00
620.90	4278.00
621.36	4158.00
621.81	4239.00
622.27	4267.00
622.72	4203.00
623.18	4124.00
623.63	4193.00
624.08	4266.00
624.54	4107.00
624.99	4133.00
625.45	4175.00
625.90	4103.00
626.35	4135.00
626.81	4126.00
627.26	4088.00
627.72	4149.00
628.17	4153.00
628.62	4133.00
629.08	4126.00
629.53	4136.00
629.99	4103.00
630.44	4170.00
630.89	4156.00
631.35	4145.00
631.80	4123.00
632.26	4169.00
632.71	4094.00
633.16	4118.00
633.62	4075.00
634.07	4109.00
634.52	4093.00
634.98	4113.00
635.43	4074.00
635.88	4017.00
636.34	4095.00
636.79	4115.00
637.24	4075.00
637.70	4159.00
638.15	4064.00
638.60	4043.00
639.06	4066.00
639.51	3990.00
639.96	4008.00
640.42	4058.00
640.87	4035.00
641.32	3945.00
641.78	3961.00
642.23	3996.00
642.68	3927.00
643.14	3947.00
643.59	3958.00
644.04	3910.00
644.49	3892.00
644.95	3905.00
645.40	3889.00
645.85	3913.00
646.31	3891.00
646.76	3885.00
647.21	3903.00
647.66	3857.00
648.12	3875.00
648.57	3753.00
649.02	3855.00
649.47	3831.00
649.93	4039.00
650.38	3773.00
650.83	3763.00
651.28	3757.00
651.74	3837.00
652.19	3742.00
652.64	3797.00
653.09	3775.00
653.55	3773.00
654.00	3776.00
654.45	3791.00
654.90	3736.00
655.35	3691.00
655.81	3713.00
656.26	3605.00
656.71	3747.00
657.16	3746.00
657.62	3768.00
658.07	3738.00
658.52	3779.00
658.97	3670.00
659.42	3882.00
659.88	3640.00
660.33	3755.00
660.78	3703.00
661.23	3615.00
661.68	3677.00
662.13	3623.00
662.59	3585.00
663.04	3631.00
663.49	3615.00
663.94	3630.00
664.39	3599.00
664.84	3557.00
665.30	3616.00
665.75	3559.00
666.20	3608.00
666.65	3605.00
667.10	3712.00
667.55	3669.00
668.00	3516.00
668.46	3560.00
668.91	3544.00
669.36	3664.00
669.81	3474.00
670.26	3549.00
670.71	3619.00
671.16	3556.00
671.61	3639.00
672.06	3601.00
672.52	3544.00
672.97	3540.00
673.42	3587.00
673.87	3698.00
674.32	3498.00
674.77	3563.00
675.22	3482.00
675.67	3489.00
676.12	3560.00
676.57	3546.00
677.02	3518.00
677.47	3466.00
677.93	3660.00
678.38	3485.00
678.83	3477.00
679.28	3548.00
679.73	3518.00
680.18	3504.00
680.63	3539.00
681.08	3474.00
681.53	3463.00
681.98	3565.00
682.43	3544.00
682.88	3566.00
683.33	3598.00
683.78	3571.00
684.23	3633.00
684.68	3586.00
685.13	3618.00
685.58	3627.00
686.03	3603.00
686.48	3577.00
686.93	3595.00
687.38	3513.00
687.83	3588.00
688.28	3668.00
688.73	3816.00
689.18	3703.00
689.63	3633.00
690.08	3728.00
690.53	3764.00
690.98	3776.00
691.43	3851.00
691.88	3845.00
692.33	3969.00
692.78	3954.00
693.23	4049.00
693.68	4147.00
694.13	4090.00
694.58	4175.00
695.03	4409.00
695.48	4326.00
695.93	4371.00
696.38	4537.00
696.83	4566.00
697.28	4561.00
697.72	4689.00
698.17	4733.00
698.62	4775.00
699.07	4853.00
699.52	4869.00
699.97	4974.00
700.42	5053.00
700.87	5207.00
701.32	5337.00
701.77	5182.00
702.22	5404.00
702.67	5330.00
703.11	5441.00
703.56	5563.00
704.01	5595.00
704.46	5784.00
704.91	5835.00
705.36	5978.00
705.81	5982.00
706.26	6003.00
706.70	6109.00
707.15	6238.00
707.60	6254.00
708.05	6410.00
708.50	6443.00
708.95	6508.00
709.40	6479.00
709.84	6627.00
710.29	6635.00
710.74	6784.00
711.19	6761.00
711.64	6898.00
712.09	6948.00
712.53	6970.00
712.98	7139.00
713.43	7135.00
713.88	7199.00
714.33	7289.00
714.78	7271.00
715.22	7186.00
715.67	7373.00
716.12	7244.00
716.57	7101.00
717.02	6774.00
717.46	6739.00
717.91	6828.00
718.36	6831.00
718.81	6739.00
719.26	6669.00
719.70	6819.00
720.15	6887.00
720.60	7006.00
721.05	7513.00
721.49	7709.00
721.94	7927.00
722.39	7835.00
722.84	7780.00
723.28	7487.00
723.73	7475.00
724.18	7443.00
724.63	7629.00
725.07	7489.00
725.52	7695.00
725.97	7761.00
726.42	7900.00
726.86	8005.00
727.31	7817.00
727.76	8060.00
728.21	8125.00
728.65	8096.00
729.10	8140.00
729.55	8166.00
729.99	8353.00
730.44	8355.00
730.89	8497.00
731.33	8625.00
731.78	8819.00
732.23	8946.00
732.68	9106.00
733.12	9267.00
733.57	9419.00
734.02	9447.00
734.46	9604.00
734.91	9587.00
735.36	9600.00
735.80	9823.00
736.25	9660.00
736.70	9733.00
737.14	9911.00
737.59	9934.00
738.04	9928.00
738.48	9855.00
738.93	9995.00
739.37	10030.00
739.82	10199.00
740.27	10214.00
740.71	10235.00
741.16	10231.00
741.61	10319.00
742.05	10246.00
742.50	10311.00
742.94	10386.00
743.39	10410.00
743.84	10497.00
744.28	10503.00
744.73	10544.00
745.18	10610.00
745.62	10714.00
746.07	10690.00
746.51	10612.00
746.96	10686.00
747.40	10569.00
747.85	10645.00
748.30	10626.00
748.74	10595.00
749.19	10653.00
749.63	10701.00
750.08	10660.00
750.52	10729.00
750.97	10576.00
751.42	10641.00
751.86	10677.00
752.31	10585.00
752.75	10633.00
753.20	10602.00
753.64	10691.00
754.09	10519.00
754.53	10659.00
754.98	10638.00
755.42	10700.00
755.87	10686.00
756.31	10681.00
756.76	10523.00
757.20	10554.00
757.65	10482.00
758.09	10285.00
758.54	10073.00
758.98	9183.00
759.43	7645.00
759.87	6198.00
760.32	5287.00
760.76	5238.00
761.21	5920.00
761.65	6659.00
762.10	6922.00
762.54	6597.00
762.99	6421.00
763.43	6566.00
763.88	6803.00
764.32	7097.00
764.77	7565.00
765.21	8001.00
765.66	8327.00
766.10	8592.00
766.54	9129.00
766.99	9367.00
767.43	9557.00
767.88	9864.00
768.32	10091.00
768.77	10132.00
769.21	10334.00
769.66	10238.00
770.10	10426.00
770.54	10537.00
770.99	10453.00
771.43	10523.00
771.88	10489.00
772.32	10367.00
772.76	10396.00
773.21	10381.00
773.65	10435.00
774.10	10404.00
774.54	10399.00
774.98	10372.00
775.43	10503.00
775.87	10521.00
776.31	10512.00
776.76	10535.00
777.20	10494.00
777.65	10549.00
778.09	10392.00
778.53	10355.00
778.98	10322.00
779.42	10462.00
779.86	10389.00
780.31	10324.00
780.75	10486.00
781.19	10516.00
781.64	10352.00
782.08	10499.00
782.52	10353.00
782.97	10186.00
783.41	10349.00
783.85	10193.00
784.30	10150.00
784.74	10205.00
785.18	10147.00
785.63	10139.00
786.07	10151.00
786.51	10306.00
786.95	10213.00
787.40	10154.00
787.84	10085.00
788.28	10073.00
788.73	10105.00
789.17	9807.00
789.61	9759.00
790.05	9851.00
790.50	9651.00
790.94	9580.00
791.38	9765.00
791.82	9722.00
792.27	9672.00
792.71	9755.00
793.15	9947.00
793.59	9823.00
794.04	9811.00
794.48	9678.00
794.92	9647.00
795.36	9521.00
795.81	9596.00
796.25	9429.00
796.69	9500.00
797.13	9545.00
797.57	9595.00
798.02	9763.00
798.46	9800.00
798.90	9778.00
799.34	9595.00
799.79	9573.00
800.23	9440.00
800.67	9271.00
801.11	9329.00
801.55	9309.00
801.99	9271.00
802.44	9321.00
802.88	9465.00
803.32	9489.00
803.76	9509.00
804.20	9457.00
804.64	9354.00
805.09	9534.00
805.53	9636.00
805.97	9425.00
806.41	9367.00
806.85	9413.00
807.29	9124.00
807.74	9162.00
808.18	9073.00
808.62	9179.00
809.06	9064.00
809.50	9129.00
809.94	9160.00
810.38	9189.00
810.82	9237.00
811.27	9307.00
811.71	8885.00
812.15	8814.00
812.59	8663.00
813.03	8559.00
813.47	8309.00
813.91	8028.00
814.35	8041.00
814.79	8015.00
815.23	7960.00
815.67	7799.00
816.12	7839.00
816.56	7860.00
817.00	7995.00
817.44	7986.00
817.88	7984.00
818.32	7852.00
818.76	7954.00
819.20	7907.00
819.64	7981.00
820.08	7973.00
820.52	8171.00
820.96	8203.00
821.40	8205.00
821.84	8050.00
822.28	7625.00
822.72	7671.00
823.16	7595.00
823.60	7933.00
824.04	8315.00
824.48	8452.00
824.92	8377.00
825.36	8427.00
825.80	8266.00
826.24	8239.00
826.68	8119.00
827.12	8172.00
827.56	8104.00
828.00	8122.00
828.44	8003.00
828.88	8212.00
829.32	8247.00
829.76	8261.00
830.20	8311.00
830.64	8302.00
831.08	8311.00
831.52	8139.00
831.96	8136.00
832.40	7988.00
832.84	8182.00
833.28	8070.00
833.72	8319.00
834.16	8356.00
834.60	8493.00
835.04	8592.00
835.48	8631.00
835.91	8563.00
836.35	8551.00
836.79	8569.00
837.23	8457.00
837.67	8447.00
838.11	8359.00
838.55	8361.00
838.99	8411.00
839.43	8588.00
839.87	8560.00
840.30	8594.00
840.74	8835.00
841.18	8669.00
841.62	8729.00
842.06	8750.00
842.50	8838.00
842.94	8752.00
843.38	8576.00
843.81	8555.00
844.25	8464.00
844.69	8310.00
845.13	8480.00
845.57	8493.00
846.01	8459.00
846.45	8373.00
846.88	8517.00
847.32	8677.00
847.76	8649.00
848.20	8719.00
848.64	8604.00
849.08	8647.00
849.51	8648.00
849.95	8421.00
850.39	8350.00
850.83	8521.00
851.27	8402.00
851.70	8300.00
852.14	8368.00
852.58	8217.00
853.02	7935.00
853.46	7843.00
853.89	7789.00
854.33	7833.00
854.77	8061.00
855.21	8400.00
855.65	8645.00
856.08	8739.00
856.52	8691.00
856.96	8719.00
857.40	8470.00
857.83	8314.00
858.27	8346.00
858.71	8180.00
859.15	8146.00
859.58	8179.00
860.02	8261.00
860.46	8387.00
860.89	8528.00
861.33	8539.00
861.77	8553.00
862.21	8666.00
862.64	8639.00
863.08	8653.00
863.52	8626.00
863.95	8473.00
864.39	8341.00
864.83	8072.00
865.27	7805.00
865.70	7762.00
866.14	7665.00
866.58	7825.00
867.01	8049.00
867.45	8249.00
867.89	8383.00
868.32	8561.00
868.76	8477.00
869.20	8551.00
869.63	8698.00
870.07	8520.00
870.51	8273.00
870.94	8212.00
871.38	8121.00
871.82	7879.00
872.25	7885.00
872.69	7967.00
873.13	8003.00
873.56	8080.00
874.00	8157.00
874.43	8180.00
874.87	8231.00
875.31	8375.00
875.74	8326.00
876.18	8476.00
876.61	8389.00
877.05	8279.00
877.49	8247.00
877.92	8115.00
878.36	8159.00
878.79	8000.00
879.23	7936.00
879.67	7813.00
880.10	7729.00
880.54	7790.00
880.97	7830.00
881.41	8077.00
881.84	8132.00
882.28	8281.00
882.72	8435.00
883.15	8351.00
883.59	8445.00
884.02	8395.00
884.46	8350.00
884.89	8305.00
885.33	8162.00
885.76	7953.00
886.20	7796.00
886.63	7892.00
887.07	7644.00
887.50	7671.00
887.94	7732.00
888.37	7813.00
888.81	7952.00
889.24	7844.00
889.68	8093.00
890.11	7985.00
890.55	8125.00
890.98	8212.00
891.42	8099.00
891.85	8082.00
892.29	8008.00
892.72	7845.00
893.16	7715.00
893.59	7603.00
894.03	7489.00
894.46	7280.00
894.90	7087.00
895.33	6811.00
895.77	6869.00
896.20	6849.00
896.63	6910.00
897.07	6896.00
897.50	6817.00
897.94	6879.00
898.37	7157.00
898.81	6720.00
899.24	6700.00
899.68	7005.00
900.11	6929.00
900.54	6832.00
900.98	6749.00
901.41	6797.00
901.85	6825.00
902.28	6728.00
902.71	6809.00
903.15	7045.00
903.58	7069.00
904.02	7097.00
904.45	7109.00
904.88	7118.00
905.32	7003.00
905.75	7181.00
906.18	6930.00
906.62	6928.00
907.05	6783.00
907.48	6788.00
907.92	6797.00
908.35	6841.00
908.79	6660.00
909.22	6571.00
909.65	6581.00
910.09	6614.00
910.52	6657.00
910.95	6565.00
911.38	6587.00
911.82	6339.00
912.25	6591.00
912.68	6615.00
913.12	6579.00
913.55	6582.00
913.98	6697.00
914.42	6836.00
914.85	6914.00
915.28	6727.00
915.72	6715.00
916.15	6554.00
916.58	6747.00
917.01	6454.00
917.45	6451.00
917.88	6492.00
918.31	6594.00
918.74	6779.00
919.18	6791.00
919.61	6831.00
920.04	6908.00
920.47	7031.00
920.91	6999.00
921.34	6931.00
921.77	6959.00
922.20	6978.00
922.64	6993.00
923.07	7009.00
923.50	6920.00
923.93	6770.00
924.37	6814.00
924.80	6709.00
925.23	6738.00
925.66	6560.00
926.09	6358.00
926.53	6245.00
926.96	6086.00
927.39	6088.00
927.82	5770.00
928.25	5589.00
928.69	5615.00
929.12	5577.00
929.55	5393.00
929.98	5348.00
930.41	5094.00
930.84	5078.00
931.28	4835.00
931.71	4735.00
932.14	4527.00
932.57	4559.00
933.00	4329.00
933.43	4258.00
933.86	4214.00
934.30	4167.00
934.73	4319.00
935.16	4187.00
935.59	4116.00
936.02	4206.00
936.45	4164.00
936.88	4125.00
937.31	4344.00
937.75	4411.00
938.18	4457.00
938.61	4589.00
939.04	4611.00
939.47	4665.00
939.90	4488.00
940.33	4535.00
940.76	4296.00
941.19	4276.00
941.62	4174.00
942.05	4172.00
942.48	4083.00
942.91	4026.00
943.35	4094.00
943.78	4100.00
944.21	4052.00
944.64	4180.00
945.07	4163.00
945.50	4143.00
945.93	4146.00
946.36	4272.00
946.79	4253.00
947.22	4369.00
947.65	4285.00
948.08	4202.00
948.51	4346.00
948.94	4350.00
949.37	4435.00
949.80	4278.00
950.23	4307.00
950.66	4341.00
951.09	4327.00
951.52	4215.00
951.95	4291.00
952.38	4377.00
952.81	4474.00
953.24	4491.00
953.67	4543.00
954.10	4497.00
954.53	4601.00
954.96	4527.00
955.39	4672.00
955.82	4733.00
956.25	4661.00
956.68	4830.00
957.11	4761.00
957.53	4687.00
957.96	4713.00
958.39	4635.00
958.82	4496.00
959.25	4610.00
959.68	4621.00
960.11	4684.00
960.54	4770.00
960.97	4929.00
961.40	5023.00
961.83	4953.00
962.26	4920.00
962.68	5116.00
963.11	5166.00
963.54	5168.00
963.97	5250.00
964.40	5192.00
964.83	5324.00
965.26	5343.00
965.69	5285.00
966.11	5263.00
966.54	5241.00
966.97	5390.00
967.40	5499.00
967.83	5577.00
968.26	5421.00
968.69	5434.00
969.11	5480.00
969.54	5366.00
969.97	5434.00
970.40	5514.00
970.83	5501.00
971.26	5550.00
971.68	5521.00
972.11	5549.00
972.54	5608.00
972.97	5611.00
973.40	5502.00
973.82	5520.00
974.25	5495.00
974.68	5491.00
975.11	5410.00
975.54	5413.00
975.96	5370.00
976.39	5321.00
976.82	5463.00
977.25	5425.00
977.67	5339.00
978.10	5405.00
978.53	5391.00
978.96	5485.00
979.38	5543.00
979.81	5525.00
980.24	5647.00
980.67	5763.00
981.09	5769.00
981.52	5772.00
981.95	5789.00
982.38	5786.00
982.80	5887.00
983.23	5876.00
983.66	5968.00
984.08	5816.00
984.51	5738.00
984.94	5843.00
985.37	5822.00
985.79	5732.00
986.22	5577.00
986.65	5625.00
987.07	5554.00
987.50	5595.00
987.93	5540.00
988.35	5651.00
988.78	5604.00
989.21	5686.00
989.63	5712.00
990.06	5695.00
990.49	5836.00
990.91	5939.00
991.34	5807.00
991.77	5838.00
992.19	5821.00
992.62	5864.00
993.05	5793.00
993.47	5886.00
993.90	5800.00
994.32	5674.00
994.75	5701.00
995.18	5564.00
995.60	5540.00
996.03	5511.00
996.45	5591.00
996.88	5493.00
997.31	5450.00
997.73	5473.00
998.16	5456.00
998.58	5625.00
999.01	5571.00
999.44	5620.00
999.86	5630.00
1000.29	5603.00
1000.71	5657.00
1001.14	5685.00
1001.56	5610.00
1001.99	5607.00
1002.41	5610.00
1002.84	5536.00
1003.27	5501.00
1003.69	5425.00
1004.12	5393.00
1004.54	5389.00
1004.97	5297.00
1005.39	5190.00
1005.82	5247.00
1006.24	5228.00
1006.67	5213.00
1007.09	5176.00
1007.52	5241.00
1007.94	5145.00
1008.37	5406.00
1008.79	5282.00
1009.22	5302.00
1009.64	5272.00
1010.07	5302.00
1010.49	5318.00
1010.92	5272.00
1011.34	5330.00
1011.77	5242.00
1012.19	5299.00
1012.62	5310.00
1013.04	5218.00
1013.46	5291.00
1013.89	5062.00
1014.31	5131.00
1014.74	5035.00
1015.16	4991.00
1015.59	4943.00
1016.01	5008.00
1016.44	4994.00
1016.86	5872.00
1017.28	5053.00
1017.71	5029.00
1018.13	5259.00
1018.56	5164.00
1018.98	5173.00
1019.40	5115.00
1019.83	5185.00
1020.25	5130.00
1020.68	5173.00
1021.10	5245.00
1021.52	5179.00
1021.95	5361.00
1022.37	5234.00
1022.79	5231.00
1023.22	5247.00
1023.64	5109.00
1024.07	5184.00
1024.49	5178.00
1024.91	5048.00
1025.34	4984.00
1025.76	5163.00
1026.18	5082.00
1026.61	5054.00
1027.03	5049.00
1027.45	5047.00
1027.88	4965.00
1028.30	5102.00
1028.72	5066.00
1029.15	5009.00
1029.57	5098.00
1029.99	5176.00
1030.41	5025.00
1030.84	5097.00
1031.26	5034.00
1031.68	5003.00
1032.11	5035.00
1032.53	4977.00
1032.95	4929.00
1033.37	4906.00
1033.80	4937.00
1034.22	4832.00
1034.64	4962.00
1035.06	4791.00
1035.49	4748.00
1035.91	4755.00
1036.33	4679.00
1036.75	4778.00
1037.18	4742.00
1037.60	4745.00
1038.02	4744.00
1038.44	4761.00
1038.87	4667.00
1039.29	4695.00
1039.71	4722.00
1040.13	4695.00
1040.55	4824.00
1040.98	4731.00
1041.40	4753.00
1041.82	4720.00
1042.24	4651.00
1042.66	4704.00
1043.09	4605.00
1043.51	4604.00
1043.93	4532.00
1044.35	4529.00
1044.77	4543.00
1045.20	4557.00
1045.62	4429.00
1046.04	4441.00
1046.46	4477.00
1046.88	4403.00
1047.30	4470.00
1047.72	4443.00
1048.15	4417.00
1048.57	4384.00
1048.99	4369.00
1049.41	4377.00
1049.83	4390.00
1050.25	4433.00
1050.67	4405.00
1051.09	4356.00
1051.52	4373.00
1051.94	4251.00
1052.36	4345.00
1052.78	4276.00
1053.20	4256.00
1053.62	4285.00
1054.04	4267.00
1054.46	4306.00
1054.88	4362.00
1055.30	4258.00
1055.72	4276.00
1056.14	4223.00
1056.57	4376.00
1056.99	4153.00
1057.41	4114.00
1057.83	4175.00
1058.25	4108.00
1058.67	4110.00
1059.09	4066.00
1059.51	4127.00
1059.93	4026.00
1060.35	4082.00
1060.77	4090.00
1061.19	4099.00
1061.61	4052.00
1062.03	4042.00
1062.45	3995.00
1062.87	4087.00
1063.29	4105.00
1063.71	3992.00
1064.13	3940.00
1064.55	3937.00
1064.97	4018.00
1065.39	3988.00
1065.81	3978.00
1066.23	3933.00
1066.65	3925.00
1067.07	4076.00
1067.49	3932.00
1067.91	3884.00
1068.33	3856.00
1068.75	3961.00
1069.17	3947.00
1069.59	3913.00
1070.00	3856.00
1070.42	3932.00
1070.84	3835.00
1071.26	3788.00
1071.68	3807.00
1072.10	3836.00
1072.52	3849.00
1072.94	3752.00
1073.36	3765.00
1073.78	3809.00
1074.20	3859.00
1074.62	3773.00
1075.03	3743.00
1075.45	3811.00
1075.87	3839.00
1076.29	3808.00
1076.71	3806.00
1077.13	3855.00
1077.55	3733.00
1077.97	3782.00
1078.38	3779.00
1078.80	3765.00
1079.22	3768.00
1079.64	3718.00
1080.06	3730.00
1080.48	3720.00
1080.89	3709.00
1081.31	3675.00
1081.73	3694.00
1082.15	3703.00
1082.57	3743.00
1082.99	3663.00
1083.40	3658.00
1083.82	3718.00
1084.24	3621.00
1084.66	3625.00
1085.08	3663.00
1085.49	3591.00
1085.91	3647.00
1086.33	4884.00
1086.75	3669.00
1087.17	3596.00
1087.58	3633.00
1088.00	3618.00
1088.42	3675.00
1088.84	3637.00
1089.25	3567.00
1089.67	3607.00
1090.09	3563.00
1090.51	3502.00
1090.92	3615.00
1091.34	3532.00
1091.76	3567.00
1092.18	3547.00
1092.59	3529.00
1093.01	3517.00
1093.43	3558.00
1093.84	3476.00
1094.26	3513.00
1094.68	3499.00
1095.10	3457.00
1095.51	3504.00
1095.93	3475.00
1096.35	3523.00
1096.76	3515.00
1097.18	3503.00
1097.60	3475.00
1098.01	3475.00
1098.43	3459.00
1098.85	3449.00
1099.26	3402.00
1099.68	3455.00
1100.10	3399.00
1100.51	3368.00
1100.93	3424.00
1101.35	3419.00
1101.76	3427.00
1102.18	3922.00
1102.60	3460.00
1103.01	3334.00
1103.43	3419.00
1103.84	3403.00
1104.26	3367.00
1104.68	3415.00
1105.09	3320.00
1105.51	3361.00
1105.92	3445.00
1106.34	3310.00
1106.76	3379.00
1107.17	3390.00
1107.59	3353.00
1108.00	3287.00
1108.42	3346.00
1108.83	3279.00
1109.25	3298.00
1109.67	3290.00
1110.08	3303.00
1110.50	3267.00
1110.91	3295.00
1111.33	3283.00
1111.74	3272.00
1112.16	3295.00
1112.57	3353.00
1112.99	3276.00
1113.41	3269.00
1113.82	3236.00
1114.24	3267.00
1114.65	3252.00
1115.07	3181.00
1115.48	3071.00
1115.90	2184.00
1116.31	2209.00
1116.73	2209.00
1117.14	2209.00
>>>>>End Processed Spectral Data<<<<<
