SpectraSuite Data File
++++++++++++++++++++++++++++++++++++
Date: Tue May 29 13:11:14 EEST 2018
User: CanSEE
Dark Spectrum Present: No
Reference Spectrum Present: No
Number of Sampled Component Spectra: 1
Spectrometers: MAYP11278
Integration Time (usec): 230000 (MAYP11278)
Spectra Averaged: 1 (MAYP11278)
Boxcar Smoothing: 0 (MAYP11278)
Correct for Electrical Dark: No (MAYP11278)
Strobe/Lamp Enabled: No (MAYP11278)
Correct for Detector Non-linearity: No (MAYP11278)
Correct for Stray Light: No (MAYP11278)
Number of Pixels in Processed Spectrum: 2068
>>>>>Begin Processed Spectral Data<<<<<
187.82	2339.00
188.30	2236.00
188.78	2215.00
189.26	2212.00
189.73	3237.00
190.21	3382.00
190.69	3555.00
191.17	3581.00
191.64	3650.00
192.12	3537.00
192.60	3579.00
193.07	3539.00
193.55	3574.00
194.03	3575.00
194.51	3551.00
194.98	3541.00
195.46	3625.00
195.94	3553.00
196.42	3570.00
196.89	3661.00
197.37	3575.00
197.85	3511.00
198.32	3559.00
198.80	3540.00
199.28	3579.00
199.76	3600.00
200.23	3598.00
200.71	3613.00
201.19	3574.00
201.66	3633.00
202.14	3610.00
202.62	3532.00
203.09	3578.00
203.57	3512.00
204.05	3606.00
204.53	3636.00
205.00	3535.00
205.48	3530.00
205.96	3666.00
206.43	3567.00
206.91	3596.00
207.39	3693.00
207.86	3573.00
208.34	3587.00
208.82	3586.00
209.29	3572.00
209.77	3596.00
210.25	3571.00
210.72	3533.00
211.20	3614.00
211.68	3567.00
212.15	3562.00
212.63	3649.00
213.11	3578.00
213.58	3551.00
214.06	3656.00
214.53	3585.00
215.01	3646.00
215.49	3585.00
215.96	3631.00
216.44	3603.00
216.92	3633.00
217.39	3523.00
217.87	3556.00
218.35	3608.00
218.82	3516.00
219.30	3554.00
219.77	3533.00
220.25	3579.00
220.73	3679.00
221.20	3552.00
221.68	3617.00
222.15	3517.00
222.63	3631.00
223.11	3545.00
223.58	3604.00
224.06	3614.00
224.53	3537.00
225.01	3564.00
225.49	3545.00
225.96	3523.00
226.44	3577.00
226.91	3593.00
227.39	3591.00
227.87	3630.00
228.34	3600.00
228.82	3610.00
229.29	3569.00
229.77	3576.00
230.24	3567.00
230.72	3644.00
231.20	3634.00
231.67	3602.00
232.15	3570.00
232.62	3504.00
233.10	3573.00
233.57	3587.00
234.05	3723.00
234.53	3587.00
235.00	3574.00
235.48	3586.00
235.95	3541.00
236.43	3637.00
236.90	3625.00
237.38	3537.00
237.85	3574.00
238.33	3539.00
238.80	3569.00
239.28	3557.00
239.75	3510.00
240.23	3590.00
240.71	3626.00
241.18	3541.00
241.66	3582.00
242.13	3649.00
242.61	3595.00
243.08	3541.00
243.56	3510.00
244.03	3605.00
244.51	3619.00
244.98	3532.00
245.46	3616.00
245.93	4948.00
246.41	3506.00
246.88	3600.00
247.36	3588.00
247.83	3594.00
248.31	3589.00
248.78	3533.00
249.26	3611.00
249.73	3611.00
250.21	3614.00
250.68	3681.00
251.16	3573.00
251.63	3690.00
252.10	3617.00
252.58	3599.00
253.05	3635.00
253.53	3617.00
254.00	3584.00
254.48	3603.00
254.95	3651.00
255.43	3677.00
255.90	3623.00
256.38	3615.00
256.85	3671.00
257.33	3621.00
257.80	3758.00
258.27	3614.00
258.75	3574.00
259.22	3571.00
259.70	3586.00
260.17	3650.00
260.65	3614.00
261.12	3584.00
261.59	3665.00
262.07	3564.00
262.54	3649.00
263.02	3603.00
263.49	3537.00
263.97	3609.00
264.44	3659.00
264.91	3556.00
265.39	3627.00
265.86	3606.00
266.34	3661.00
266.81	3609.00
267.28	3583.00
267.76	3611.00
268.23	3585.00
268.71	3543.00
269.18	3530.00
269.65	3561.00
270.13	3621.00
270.60	3675.00
271.08	3590.00
271.55	3592.00
272.02	3568.00
272.50	3595.00
272.97	3515.00
273.44	3641.00
273.92	3735.00
274.39	3639.00
274.87	3651.00
275.34	3545.00
275.81	3596.00
276.29	3585.00
276.76	3587.00
277.23	3497.00
277.71	3516.00
278.18	3486.00
278.65	3672.00
279.13	3532.00
279.60	3558.00
280.07	3864.00
280.55	3847.00
281.02	3882.00
281.50	3665.00
281.97	3728.00
282.44	3631.00
282.91	3644.00
283.39	3649.00
283.86	3628.00
284.33	3588.00
284.81	3660.00
285.28	3620.00
285.75	3658.00
286.23	3639.00
286.70	3554.00
287.17	3622.00
287.65	3660.00
288.12	3611.00
288.59	3644.00
289.07	3518.00
289.54	3679.00
290.01	3576.00
290.48	3637.00
290.96	3611.00
291.43	3661.00
291.90	3730.00
292.38	3595.00
292.85	3643.00
293.32	3625.00
293.79	3597.00
294.27	3658.00
294.74	3579.00
295.21	3618.00
295.69	3635.00
296.16	3728.00
296.63	3705.00
297.10	3663.00
297.58	3639.00
298.05	3641.00
298.52	3603.00
298.99	3676.00
299.47	3600.00
299.94	3615.00
300.41	3568.00
300.88	3655.00
301.36	3653.00
301.83	3650.00
302.30	3539.00
302.77	3605.00
303.25	3659.00
303.72	3573.00
304.19	3615.00
304.66	3563.00
305.13	3636.00
305.61	3648.00
306.08	3576.00
306.55	3653.00
307.02	3575.00
307.49	3572.00
307.97	3609.00
308.44	3595.00
308.91	3664.00
309.38	3635.00
309.86	3601.00
310.33	3657.00
310.80	3664.00
311.27	3645.00
311.74	3707.00
312.21	3614.00
312.69	3714.00
313.16	3611.00
313.63	3598.00
314.10	3674.00
314.57	3561.00
315.05	3621.00
315.52	3662.00
315.99	3656.00
316.46	3624.00
316.93	3665.00
317.40	3595.00
317.88	3750.00
318.35	3622.00
318.82	3623.00
319.29	3617.00
319.76	3685.00
320.23	3678.00
320.70	3680.00
321.18	3663.00
321.65	3564.00
322.12	3624.00
322.59	3709.00
323.06	3618.00
323.53	3738.00
324.00	3566.00
324.48	3594.00
324.95	3633.00
325.42	3667.00
325.89	3661.00
326.36	3628.00
326.83	3701.00
327.30	3687.00
327.77	3697.00
328.24	3656.00
328.72	3623.00
329.19	3674.00
329.66	3620.00
330.13	3649.00
330.60	3670.00
331.07	3661.00
331.54	3754.00
332.01	3585.00
332.48	3733.00
332.95	3722.00
333.43	3723.00
333.90	3742.00
334.37	3715.00
334.84	3669.00
335.31	3842.00
335.78	3637.00
336.25	3649.00
336.72	3643.00
337.19	3641.00
337.66	3651.00
338.13	3616.00
338.60	3691.00
339.07	3649.00
339.54	3572.00
340.01	3585.00
340.49	3574.00
340.96	3643.00
341.43	3657.00
341.90	3567.00
342.37	3628.00
342.84	3613.00
343.31	3601.00
343.78	3566.00
344.25	3572.00
344.72	3561.00
345.19	3594.00
345.66	3617.00
346.13	3563.00
346.60	3552.00
347.07	3655.00
347.54	3581.00
348.01	3633.00
348.48	3620.00
348.95	3541.00
349.42	3594.00
349.89	3628.00
350.36	3580.00
350.83	3519.00
351.30	3609.00
351.77	3656.00
352.24	3621.00
352.71	3591.00
353.18	3610.00
353.65	3626.00
354.12	3633.00
354.59	3612.00
355.06	3635.00
355.53	3655.00
356.00	3545.00
356.47	3667.00
356.94	3575.00
357.41	3707.00
357.88	3591.00
358.35	3524.00
358.82	3580.00
359.28	3611.00
359.75	3581.00
360.22	3659.00
360.69	3689.00
361.16	3570.00
361.63	3582.00
362.10	3627.00
362.57	3611.00
363.04	3612.00
363.51	3712.00
363.98	3632.00
364.45	3578.00
364.92	3653.00
365.39	3593.00
365.86	3601.00
366.32	3611.00
366.79	3594.00
367.26	4818.00
367.73	3954.00
368.20	3547.00
368.67	3668.00
369.14	3576.00
369.61	3669.00
370.08	3633.00
370.55	3612.00
371.02	4476.00
371.48	3635.00
371.95	3612.00
372.42	3578.00
372.89	3653.00
373.36	3611.00
373.83	3557.00
374.30	3575.00
374.77	3705.00
375.23	3606.00
375.70	3686.00
376.17	3654.00
376.64	3553.00
377.11	3611.00
377.58	3666.00
378.05	3671.00
378.51	3586.00
378.98	3648.00
379.45	3624.00
379.92	3681.00
380.39	3767.00
380.86	3641.00
381.33	3728.00
381.79	3690.00
382.26	3610.00
382.73	3612.00
383.20	3603.00
383.67	3694.00
384.14	3613.00
384.60	3867.00
385.07	3617.00
385.54	3623.00
386.01	3631.00
386.48	3705.00
386.94	3576.00
387.41	3583.00
387.88	3675.00
388.35	3673.00
388.82	3723.00
389.28	3629.00
389.75	3651.00
390.22	3679.00
390.69	3669.00
391.16	3637.00
391.62	3644.00
392.09	3671.00
392.56	3636.00
393.03	3615.00
393.50	3739.00
393.96	3668.00
394.43	3701.00
394.90	3613.00
395.37	3643.00
395.83	3867.00
396.30	3620.00
396.77	3694.00
397.24	3719.00
397.70	3576.00
398.17	3647.00
398.64	3641.00
399.11	3634.00
399.57	3716.00
400.04	3639.00
400.51	3643.00
400.98	3615.00
401.44	3703.00
401.91	3694.00
402.38	3683.00
402.84	3643.00
403.31	3713.00
403.78	3705.00
404.25	3788.00
404.71	3778.00
405.18	3744.00
405.65	3662.00
406.12	3749.00
406.58	3664.00
407.05	3785.00
407.52	3736.00
407.98	4229.00
408.45	3761.00
408.92	3665.00
409.38	3823.00
409.85	3707.00
410.32	3837.00
410.78	3689.00
411.25	3828.00
411.72	3765.00
412.18	3683.00
412.65	3826.00
413.12	3806.00
413.59	3810.00
414.05	3794.00
414.52	3876.00
414.98	3819.00
415.45	3915.00
415.92	3823.00
416.38	3897.00
416.85	3961.00
417.32	3862.00
417.78	3882.00
418.25	3917.00
418.72	3913.00
419.18	3987.00
419.65	3931.00
420.12	4011.00
420.58	3945.00
421.05	4022.00
421.51	4021.00
421.98	4068.00
422.45	3982.00
422.91	3999.00
423.38	4099.00
423.85	4063.00
424.31	4123.00
424.78	4133.00
425.24	4119.00
425.71	4154.00
426.18	4101.00
426.64	4235.00
427.11	4161.00
427.57	4189.00
428.04	4135.00
428.51	4190.00
428.97	4145.00
429.44	4084.00
429.90	4099.00
430.37	4219.00
430.83	4137.00
431.30	4199.00
431.77	4310.00
432.23	4379.00
432.70	4257.00
433.16	4302.00
433.63	4306.00
434.09	4295.00
434.56	4393.00
435.03	4391.00
435.49	4418.00
435.96	4477.00
436.42	4379.00
436.89	4449.00
437.35	4411.00
437.82	4405.00
438.28	4369.00
438.75	4429.00
439.21	4647.00
439.68	4468.00
440.14	4543.00
440.61	4589.00
441.07	4536.00
441.54	4536.00
442.00	4742.00
442.47	4616.00
442.94	4612.00
443.40	4635.00
443.87	4626.00
444.33	4775.00
444.80	4683.00
445.26	4656.00
445.73	4662.00
446.19	4747.00
446.65	4806.00
447.12	4860.00
447.58	4846.00
448.05	4843.00
448.51	4925.00
448.98	4961.00
449.44	4929.00
449.91	4981.00
450.37	4963.00
450.84	5057.00
451.30	5019.00
451.77	4997.00
452.23	4964.00
452.70	4989.00
453.16	4989.00
453.62	5079.00
454.09	5065.00
454.55	5104.00
455.02	5107.00
455.48	5128.00
455.95	5201.00
456.41	5196.00
456.88	5149.00
457.34	5186.00
457.80	5184.00
458.27	5097.00
458.73	5143.00
459.20	5193.00
459.66	5182.00
460.13	5117.00
460.59	5142.00
461.05	5273.00
461.52	5261.00
461.98	5185.00
462.45	5211.00
462.91	5316.00
463.37	5165.00
463.84	5232.00
464.30	5165.00
464.76	5143.00
465.23	5154.00
465.69	5241.00
466.16	5237.00
466.62	5219.00
467.08	5123.00
467.55	5221.00
468.01	5219.00
468.48	5256.00
468.94	5357.00
469.40	5151.00
469.87	5235.00
470.33	5181.00
470.79	5207.00
471.26	5240.00
471.72	5277.00
472.18	5315.00
472.65	5361.00
473.11	5335.00
473.57	5305.00
474.04	5338.00
474.50	5286.00
474.96	5263.00
475.43	5293.00
475.89	5391.00
476.35	5387.00
476.82	5380.00
477.28	5417.00
477.74	5518.00
478.21	5453.00
478.67	5482.00
479.13	5473.00
479.59	5522.00
480.06	5506.00
480.52	5475.00
480.98	5487.00
481.45	5550.00
481.91	5585.00
482.37	5526.00
482.84	5536.00
483.30	5440.00
483.76	5471.00
484.22	5564.00
484.69	5463.00
485.15	5335.00
485.61	5113.00
486.07	5173.00
486.54	5245.00
487.00	5390.00
487.46	5407.00
487.92	5471.00
488.39	5563.00
488.85	5542.00
489.31	5699.00
489.77	5741.00
490.24	5630.00
490.70	5704.00
491.16	5587.00
491.62	5609.00
492.09	5586.00
492.55	5798.00
493.01	5758.00
493.47	5861.00
493.94	5838.00
494.40	5951.00
494.86	5915.00
495.32	5897.00
495.78	5924.00
496.25	6020.00
496.71	6143.00
497.17	6201.00
497.63	6110.00
498.09	6027.00
498.56	6180.00
499.02	6273.00
499.48	6401.00
499.94	6271.00
500.40	6212.00
500.87	6214.00
501.33	6308.00
501.79	6440.00
502.25	6528.00
502.71	6908.00
503.17	6668.00
503.64	6691.00
504.10	6753.00
504.56	7010.00
505.02	7026.00
505.48	7213.00
505.94	7296.00
506.40	7381.00
506.87	7387.00
507.33	7393.00
507.79	7536.00
508.25	7678.00
508.71	7861.00
509.17	7867.00
509.63	8068.00
510.10	8233.00
510.56	8321.00
511.02	8697.00
511.48	8801.00
511.94	8762.00
512.40	8797.00
512.86	8999.00
513.32	9113.00
513.78	9235.00
514.25	9481.00
514.71	10280.00
515.17	9924.00
515.63	10124.00
516.09	9875.00
516.55	9682.00
517.01	9987.00
517.47	10282.00
517.93	10463.00
518.39	10882.00
518.85	11296.00
519.32	11652.00
519.78	12129.00
520.24	12299.00
520.70	12712.00
521.16	13125.00
521.62	13374.00
522.08	13560.00
522.54	13455.00
523.00	13921.00
523.46	14465.00
523.92	14985.00
524.38	15237.00
524.84	15319.00
525.30	15551.00
525.76	15437.00
526.22	14957.00
526.68	14923.00
527.14	15615.00
527.60	16344.00
528.06	16760.00
528.52	17486.00
528.98	17715.00
529.44	17678.00
529.90	17672.00
530.36	18348.00
530.82	18693.00
531.28	18800.00
531.74	18676.00
532.20	18327.00
532.66	18191.00
533.12	19075.00
533.58	19146.00
534.04	19195.00
534.50	19638.00
534.96	20024.00
535.42	20408.00
535.88	20418.00
536.34	20122.00
536.80	19813.00
537.26	20399.00
537.72	20772.00
538.18	20755.00
538.64	20851.00
539.10	20607.00
539.56	20827.00
540.02	20496.00
540.48	20411.00
540.94	20682.00
541.40	21212.00
541.86	21456.00
542.32	21488.00
542.78	21436.00
543.24	21591.00
543.69	22019.00
544.15	22219.00
544.61	22279.00
545.07	22317.00
545.53	22410.00
545.99	22568.00
546.45	22633.00
546.91	22662.00
547.37	22349.00
547.83	22603.00
548.29	23013.00
548.74	23151.00
549.20	23245.00
549.66	23424.00
550.12	23368.00
550.58	23330.00
551.04	23521.00
551.50	23620.00
551.96	24060.00
552.42	23546.00
552.87	23580.00
553.33	23810.00
553.79	23983.00
554.25	23950.00
554.71	24192.00
555.17	24322.00
555.63	24349.00
556.08	23981.00
556.54	23648.00
557.00	23391.00
557.46	23795.00
557.92	23669.00
558.38	23220.00
558.83	22890.00
559.29	23021.00
559.75	23060.00
560.21	23365.00
560.67	23747.00
561.13	23497.00
561.58	23001.00
562.04	23092.00
562.50	23156.00
562.96	23405.00
563.42	23004.00
563.87	22707.00
564.33	22873.00
564.79	22686.00
565.25	22353.00
565.71	21889.00
566.16	22091.00
566.62	22203.00
567.08	22241.00
567.54	22255.00
568.00	21506.00
568.45	21176.00
568.91	21260.00
569.37	21273.00
569.83	20926.00
570.28	20495.00
570.74	20167.00
571.20	20288.00
571.66	20371.00
572.11	20614.00
572.57	20374.00
573.03	20352.00
573.49	20081.00
573.94	19961.00
574.40	19838.00
574.86	19595.00
575.32	19117.00
575.77	19240.00
576.23	19070.00
576.69	19173.00
577.15	19015.00
577.60	18864.00
578.06	18407.00
578.52	18462.00
578.97	18361.00
579.43	18419.00
579.89	18445.00
580.34	18384.00
580.80	18297.00
581.26	18239.00
581.72	18232.00
582.17	18321.00
582.63	18213.00
583.09	18080.00
583.54	18073.00
584.00	17986.00
584.46	17918.00
584.91	17554.00
585.37	17527.00
585.83	17286.00
586.28	17373.00
586.74	17374.00
587.20	17392.00
587.65	17066.00
588.11	16692.00
588.57	16090.00
589.02	15387.00
589.48	15451.00
589.94	15961.00
590.39	16389.00
590.85	16517.00
591.30	16415.00
591.76	16556.00
592.22	16413.00
592.67	16270.00
593.13	16391.00
593.59	16467.00
594.04	16232.00
594.50	16198.00
594.95	16179.00
595.41	16122.00
595.87	16233.00
596.32	16383.00
596.78	16375.00
597.23	16243.00
597.69	16105.00
598.15	15951.00
598.60	16042.00
599.06	16207.00
599.51	16206.00
599.97	16130.00
600.43	16029.00
600.88	16017.00
601.34	15880.00
601.79	15588.00
602.25	15903.00
602.70	15867.00
603.16	16001.00
603.61	15876.00
604.07	15892.00
604.53	15911.00
604.98	15748.00
605.44	15690.00
605.89	15577.00
606.35	15280.00
606.80	15513.00
607.26	15479.00
607.71	15311.00
608.17	15164.00
608.62	15045.00
609.08	15111.00
609.53	14929.00
609.99	14759.00
610.44	14580.00
610.90	14643.00
611.35	14569.00
611.81	14674.00
612.26	14375.00
612.72	14329.00
613.17	14385.00
613.63	13917.00
614.08	13851.00
614.54	13909.00
614.99	13863.00
615.45	13741.00
615.90	13412.00
616.36	13346.00
616.81	13389.00
617.27	13442.00
617.72	13585.00
618.18	13415.00
618.63	13488.00
619.09	13428.00
619.54	13421.00
619.99	13348.00
620.45	13514.00
620.90	13493.00
621.36	13169.00
621.81	13122.00
622.27	13163.00
622.72	13049.00
623.18	12945.00
623.63	13009.00
624.08	12888.00
624.54	12724.00
624.99	12742.00
625.45	12696.00
625.90	12737.00
626.35	12875.00
626.81	12951.00
627.26	12739.00
627.72	12560.00
628.17	12669.00
628.62	12668.00
629.08	12688.00
629.53	12594.00
629.99	12525.00
630.44	12718.00
630.89	12727.00
631.35	12671.00
631.80	12538.00
632.26	12685.00
632.71	12748.00
633.16	12679.00
633.62	12560.00
634.07	12634.00
634.52	12607.00
634.98	12552.00
635.43	12531.00
635.88	12437.00
636.34	12478.00
636.79	12497.00
637.24	12480.00
637.70	12391.00
638.15	12322.00
638.60	12238.00
639.06	12113.00
639.51	11889.00
639.96	11750.00
640.42	11723.00
640.87	11617.00
641.32	11429.00
641.78	11347.00
642.23	11264.00
642.68	11203.00
643.14	11093.00
643.59	11082.00
644.04	11004.00
644.49	10779.00
644.95	10706.00
645.40	10530.00
645.85	10372.00
646.31	10235.00
646.76	10203.00
647.21	10069.00
647.66	10023.00
648.12	9919.00
648.57	9720.00
649.02	9679.00
649.47	9465.00
649.93	9742.00
650.38	9631.00
650.83	9608.00
651.28	9455.00
651.74	9367.00
652.19	9372.00
652.64	9362.00
653.09	9372.00
653.55	9309.00
654.00	9311.00
654.45	9115.00
654.90	9035.00
655.35	8721.00
655.81	8405.00
656.26	7860.00
656.71	8291.00
657.16	8473.00
657.62	8641.00
658.07	8657.00
658.52	8646.00
658.97	8347.00
659.42	8569.00
659.88	8293.00
660.33	8349.00
660.78	8218.00
661.23	8130.00
661.68	8137.00
662.13	8005.00
662.59	7894.00
663.04	7846.00
663.49	7615.00
663.94	7521.00
664.39	7431.00
664.84	7507.00
665.30	7330.00
665.75	7378.00
666.20	7193.00
666.65	7148.00
667.10	7224.00
667.55	7151.00
668.00	6933.00
668.46	7052.00
668.91	6920.00
669.36	7015.00
669.81	6716.00
670.26	6769.00
670.71	6834.00
671.16	6723.00
671.61	6749.00
672.06	6792.00
672.52	6608.00
672.97	6654.00
673.42	6696.00
673.87	6734.00
674.32	6544.00
674.77	6531.00
675.22	6434.00
675.67	6537.00
676.12	6613.00
676.57	6542.00
677.02	6540.00
677.47	6491.00
677.93	6562.00
678.38	6545.00
678.83	6514.00
679.28	6577.00
679.73	6544.00
680.18	6600.00
680.63	6639.00
681.08	6580.00
681.53	6649.00
681.98	6722.00
682.43	6753.00
682.88	6868.00
683.33	6903.00
683.78	6949.00
684.23	7052.00
684.68	7148.00
685.13	7269.00
685.58	7325.00
686.03	7438.00
686.48	7154.00
686.93	6881.00
687.38	6981.00
687.83	7511.00
688.28	7972.00
688.73	8265.00
689.18	8417.00
689.63	8540.00
690.08	9073.00
690.53	9485.00
690.98	9947.00
691.43	10381.00
691.88	10904.00
692.33	11505.00
692.78	11980.00
693.23	12522.00
693.68	13021.00
694.13	13446.00
694.58	14119.00
695.03	15022.00
695.48	15591.00
695.93	16284.00
696.38	17329.00
696.83	18105.00
697.28	18737.00
697.72	19209.00
698.17	19909.00
698.62	20393.00
699.07	21133.00
699.52	21768.00
699.97	22556.00
700.42	23001.00
700.87	24008.00
701.32	24808.00
701.77	25208.00
702.22	25851.00
702.67	26557.00
703.11	27776.00
703.56	28471.00
704.01	29245.00
704.46	30278.00
704.91	30959.00
705.36	31267.00
705.81	32065.00
706.26	32391.00
706.70	33262.00
707.15	33808.00
707.60	34629.00
708.05	35387.00
708.50	35795.00
708.95	36282.00
709.40	36830.00
709.84	37467.00
710.29	37992.00
710.74	38548.00
711.19	38911.00
711.64	39287.00
712.09	40053.00
712.53	40607.00
712.98	40897.00
713.43	41425.00
713.88	41843.00
714.33	42039.00
714.78	41975.00
715.22	42201.00
715.67	42465.00
716.12	42138.00
716.57	40648.00
717.02	39110.00
717.46	38251.00
717.91	37989.00
718.36	37033.00
718.81	36720.00
719.26	37008.00
719.70	37614.00
720.15	38110.00
720.60	39889.00
721.05	42729.00
721.49	44749.00
721.94	45707.00
722.39	45565.00
722.84	44599.00
723.28	42806.00
723.73	42288.00
724.18	42390.00
724.63	43099.00
725.07	43228.00
725.52	44095.00
725.97	44619.00
726.42	45074.00
726.86	45832.00
727.31	45327.00
727.76	45251.00
728.21	46361.00
728.65	46256.00
729.10	46023.00
729.55	46905.00
729.99	47867.00
730.44	48287.00
730.89	48832.00
731.33	49885.00
731.78	50724.00
732.23	51645.00
732.68	52723.00
733.12	53403.00
733.57	54675.00
734.02	55355.00
734.46	55660.00
734.91	55621.00
735.36	55912.00
735.80	56538.00
736.25	56670.00
736.70	56781.00
737.14	57628.00
737.59	57687.00
738.04	57695.00
738.48	57319.00
738.93	57453.00
739.37	57750.00
739.82	58729.00
740.27	59032.00
740.71	59120.00
741.16	59049.00
741.61	59090.00
742.05	59075.00
742.50	59735.00
742.94	60023.00
743.39	60372.00
743.84	60308.00
744.28	60229.00
744.73	60455.00
745.18	61072.00
745.62	61344.00
746.07	61358.00
746.51	61056.00
746.96	61178.00
747.40	60843.00
747.85	60737.00
748.30	60988.00
748.74	60598.00
749.19	60402.00
749.63	60631.00
750.08	60863.00
750.52	60575.00
750.97	60534.00
751.42	60620.00
751.86	60656.00
752.31	60371.00
752.75	59914.00
753.20	60158.00
753.64	60307.00
754.09	60181.00
754.53	60420.00
754.98	60353.00
755.42	60191.00
755.87	60143.00
756.31	59582.00
756.76	59245.00
757.20	58870.00
757.65	58338.00
758.09	57606.00
758.54	55880.00
758.98	49733.00
759.43	39090.00
759.87	27558.00
760.32	20705.00
760.76	20428.00
761.21	25323.00
761.65	31171.00
762.10	32895.00
762.54	31364.00
762.99	29692.00
763.43	30506.00
763.88	32430.00
764.32	35308.00
764.77	38533.00
765.21	41339.00
765.66	43757.00
766.10	46370.00
766.54	48792.00
766.99	51015.00
767.43	52615.00
767.88	54041.00
768.32	55120.00
768.77	55612.00
769.21	56584.00
769.66	57394.00
770.10	58162.00
770.54	58529.00
770.99	58291.00
771.43	58622.00
771.88	58220.00
772.32	58378.00
772.76	58040.00
773.21	58138.00
773.65	57791.00
774.10	57554.00
774.54	57505.00
774.98	57466.00
775.43	58316.00
775.87	58938.00
776.31	58990.00
776.76	58979.00
777.20	58548.00
777.65	57981.00
778.09	57640.00
778.53	57460.00
778.98	57344.00
779.42	57261.00
779.86	57308.00
780.31	57075.00
780.75	57622.00
781.19	57746.00
781.64	57762.00
782.08	57975.00
782.52	57944.00
782.97	57262.00
783.41	56718.00
783.85	56154.00
784.30	56045.00
784.74	55865.00
785.18	55746.00
785.63	55660.00
786.07	55661.00
786.51	55988.00
786.95	56004.00
787.40	55676.00
787.84	55278.00
788.28	55229.00
788.73	54706.00
789.17	54317.00
789.61	53740.00
790.05	53279.00
790.50	53004.00
790.94	52783.00
791.38	52801.00
791.82	52924.00
792.27	53037.00
792.71	53273.00
793.15	53674.00
793.59	53257.00
794.04	52963.00
794.48	52679.00
794.92	51960.00
795.36	51741.00
795.81	51264.00
796.25	51139.00
796.69	51438.00
797.13	52014.00
797.57	52658.00
798.02	52729.00
798.46	52853.00
798.90	52699.00
799.34	52073.00
799.79	51569.00
800.23	50803.00
800.67	50352.00
801.11	50196.00
801.55	50098.00
801.99	49860.00
802.44	50124.00
802.88	50308.00
803.32	50566.00
803.76	50995.00
804.20	51084.00
804.64	51045.00
805.09	50870.00
805.53	50877.00
805.97	50483.00
806.41	49669.00
806.85	49265.00
807.29	48974.00
807.74	48702.00
808.18	48724.00
808.62	48685.00
809.06	48582.00
809.50	48889.00
809.94	48661.00
810.38	48991.00
810.82	48998.00
811.27	48545.00
811.71	47613.00
812.15	46874.00
812.59	45323.00
813.03	44428.00
813.47	42853.00
813.91	41674.00
814.35	41004.00
814.79	40628.00
815.23	40347.00
815.67	39739.00
816.12	40083.00
816.56	40019.00
817.00	40388.00
817.44	40676.00
817.88	40628.00
818.32	39910.00
818.76	40348.00
819.20	40112.00
819.64	40376.00
820.08	41126.00
820.52	41931.00
820.96	42837.00
821.40	41908.00
821.84	40873.00
822.28	38555.00
822.72	38080.00
823.16	38084.00
823.60	40221.00
824.04	42781.00
824.48	43462.00
824.92	43511.00
825.36	43440.00
825.80	42660.00
826.24	42393.00
826.68	41791.00
827.12	41918.00
827.56	41065.00
828.00	40862.00
828.44	41398.00
828.88	41790.00
829.32	42330.00
829.76	42352.00
830.20	43154.00
830.64	42606.00
831.08	42061.00
831.52	41778.00
831.96	41141.00
832.40	40546.00
832.84	41182.00
833.28	41440.00
833.72	42441.00
834.16	43221.00
834.60	44082.00
835.04	44913.00
835.48	44953.00
835.91	44939.00
836.35	44580.00
836.79	44464.00
837.23	44106.00
837.67	43567.00
838.11	43367.00
838.55	43668.00
838.99	43585.00
839.43	43849.00
839.87	44517.00
840.30	44781.00
840.74	45685.00
841.18	45900.00
841.62	46098.00
842.06	46285.00
842.50	46022.00
842.94	45145.00
843.38	44777.00
843.81	44053.00
844.25	43491.00
844.69	43234.00
845.13	43330.00
845.57	43432.00
846.01	43803.00
846.45	44016.00
846.88	44734.00
847.32	44777.00
847.76	45560.00
848.20	45604.00
848.64	45110.00
849.08	44212.00
849.51	44161.00
849.95	43390.00
850.39	43120.00
850.83	43593.00
851.27	43507.00
851.70	42794.00
852.14	42442.00
852.58	41586.00
853.02	40118.00
853.46	39123.00
853.89	39109.00
854.33	39005.00
854.77	40890.00
855.21	43353.00
855.65	44706.00
856.08	45401.00
856.52	45373.00
856.96	45025.00
857.40	44266.00
857.83	43460.00
858.27	42603.00
858.71	42022.00
859.15	41858.00
859.58	41996.00
860.02	42630.00
860.46	43022.00
860.89	44072.00
861.33	44259.00
861.77	44913.00
862.21	45156.00
862.64	45458.00
863.08	45304.00
863.52	44760.00
863.95	43750.00
864.39	43194.00
864.83	41338.00
865.27	39486.00
865.70	39211.00
866.14	38483.00
866.58	38495.00
867.01	40436.00
867.45	42017.00
867.89	42720.00
868.32	43919.00
868.76	44251.00
869.20	44450.00
869.63	44444.00
870.07	43877.00
870.51	42793.00
870.94	41987.00
871.38	41011.00
871.82	40328.00
872.25	40156.00
872.69	39924.00
873.13	40132.00
873.56	40518.00
874.00	41326.00
874.43	41718.00
874.87	42615.00
875.31	42958.00
875.74	43091.00
876.18	43297.00
876.61	43324.00
877.05	42842.00
877.49	42443.00
877.92	41720.00
878.36	40960.00
878.79	40241.00
879.23	39559.00
879.67	38836.00
880.10	38752.00
880.54	38728.00
880.97	39148.00
881.41	40701.00
881.84	41710.00
882.28	42130.00
882.72	42860.00
883.15	43463.00
883.59	43513.00
884.02	43595.00
884.46	43201.00
884.89	42311.00
885.33	41452.00
885.76	40205.00
886.20	39518.00
886.63	38816.00
887.07	38603.00
887.50	38715.00
887.94	38878.00
888.37	39192.00
888.81	39772.00
889.24	40373.00
889.68	40767.00
890.11	41003.00
890.55	41419.00
890.98	41770.00
891.42	41999.00
891.85	41553.00
892.29	41144.00
892.72	40037.00
893.16	38793.00
893.59	38016.00
894.03	36584.00
894.46	35404.00
894.90	34296.00
895.33	32791.00
895.77	32980.00
896.20	32568.00
896.63	32763.00
897.07	32852.00
897.50	32543.00
897.94	32827.00
898.37	34176.00
898.81	31839.00
899.24	31741.00
899.68	33607.00
900.11	32909.00
900.54	31943.00
900.98	31588.00
901.41	31154.00
901.85	31530.00
902.28	31655.00
902.71	32079.00
903.15	33092.00
903.58	34269.00
904.02	34130.00
904.45	34199.00
904.88	34131.00
905.32	33932.00
905.75	33464.00
906.18	32586.00
906.62	32732.00
907.05	31873.00
907.48	32257.00
907.92	31728.00
908.35	31759.00
908.79	31114.00
909.22	30996.00
909.65	30418.00
910.09	30341.00
910.52	29710.00
910.95	30047.00
911.38	30256.00
911.82	29014.00
912.25	29892.00
912.68	30332.00
913.12	30291.00
913.55	30361.00
913.98	31347.00
914.42	32703.00
914.85	32851.00
915.28	31269.00
915.72	31103.00
916.15	30548.00
916.58	30768.00
917.01	29888.00
917.45	28961.00
917.88	29895.00
918.31	30099.00
918.74	31499.00
919.18	31800.00
919.61	31801.00
920.04	32600.00
920.47	32725.00
920.91	33057.00
921.34	32727.00
921.77	33184.00
922.20	33614.00
922.64	33476.00
923.07	33278.00
923.50	32953.00
923.93	32459.00
924.37	31966.00
924.80	31454.00
925.23	30946.00
925.66	29783.00
926.09	28339.00
926.53	27955.00
926.96	26919.00
927.39	25661.00
927.82	24325.00
928.25	23524.00
928.69	22746.00
929.12	22658.00
929.55	21180.00
929.98	20554.00
930.41	19154.00
930.84	18227.00
931.28	16912.00
931.71	15610.00
932.14	13946.00
932.57	13425.00
933.00	12720.00
933.43	12302.00
933.86	11483.00
934.30	10971.00
934.73	12401.00
935.16	11728.00
935.59	11002.00
936.02	11747.00
936.45	11347.00
936.88	11418.00
937.31	12584.00
937.75	13163.00
938.18	13858.00
938.61	14665.00
939.04	15362.00
939.47	14971.00
939.90	13949.00
940.33	13543.00
940.76	12547.00
941.19	12043.00
941.62	11824.00
942.05	11536.00
942.48	10206.00
942.91	10444.00
943.35	11103.00
943.78	10178.00
944.21	10103.00
944.64	11190.00
945.07	11323.00
945.50	11047.00
945.93	11349.00
946.36	11906.00
946.79	12203.00
947.22	13013.00
947.65	12599.00
948.08	12063.00
948.51	13016.00
948.94	13387.00
949.37	12679.00
949.80	12018.00
950.23	12471.00
950.66	13073.00
951.09	12880.00
951.52	12244.00
951.95	12451.00
952.38	12870.00
952.81	13681.00
953.24	14507.00
953.67	14655.00
954.10	14497.00
954.53	15238.00
954.96	15013.00
955.39	15387.00
955.82	16339.00
956.25	15750.00
956.68	16176.00
957.11	16637.00
957.53	15940.00
957.96	15834.00
958.39	15563.00
958.82	14760.00
959.25	15361.00
959.68	16209.00
960.11	16238.00
960.54	16545.00
960.97	17581.00
961.40	18200.00
961.83	17838.00
962.26	18132.00
962.68	19906.00
963.11	20188.00
963.54	20281.00
963.97	20401.00
964.40	20251.00
964.83	20839.00
965.26	21095.00
965.69	20793.00
966.11	20541.00
966.54	20805.00
966.97	21777.00
967.40	22008.00
967.83	21885.00
968.26	22047.00
968.69	22108.00
969.11	22389.00
969.54	22050.00
969.97	22334.00
970.40	22877.00
970.83	22759.00
971.26	22972.00
971.68	23000.00
972.11	23275.00
972.54	23617.00
972.97	23330.00
973.40	22947.00
973.82	22959.00
974.25	22893.00
974.68	22625.00
975.11	22317.00
975.54	21804.00
975.96	21523.00
976.39	21481.00
976.82	21591.00
977.25	21319.00
977.67	21237.00
978.10	21469.00
978.53	21797.00
978.96	22381.00
979.38	22731.00
979.81	23049.00
980.24	23991.00
980.67	24259.00
981.09	24517.00
981.52	24873.00
981.95	24898.00
982.38	25044.00
982.80	25185.00
983.23	25517.00
983.66	25643.00
984.08	25322.00
984.51	25045.00
984.94	24855.00
985.37	24258.00
985.79	24098.00
986.22	23645.00
986.65	23235.00
987.07	23039.00
987.50	22988.00
987.93	22883.00
988.35	23157.00
988.78	23165.00
989.21	23490.00
989.63	23884.00
990.06	24177.00
990.49	24445.00
990.91	24828.00
991.34	25173.00
991.77	25269.00
992.19	25215.00
992.62	24936.00
993.05	24975.00
993.47	24767.00
993.90	24604.00
994.32	24012.00
994.75	23717.00
995.18	23188.00
995.60	22857.00
996.03	22627.00
996.45	22281.00
996.88	22225.00
997.31	22038.00
997.73	22079.00
998.16	21977.00
998.58	22209.00
999.01	22406.00
999.44	22748.00
999.86	22940.00
1000.29	23047.00
1000.71	23297.00
1001.14	23396.00
1001.56	23322.00
1001.99	23033.00
1002.41	22817.00
1002.84	22321.00
1003.27	22050.00
1003.69	21601.00
1004.12	20827.00
1004.54	20536.00
1004.97	20331.00
1005.39	19971.00
1005.82	19901.00
1006.24	19835.00
1006.67	19549.00
1007.09	19688.00
1007.52	19652.00
1007.94	19576.00
1008.37	19905.00
1008.79	19850.00
1009.22	19842.00
1009.64	20023.00
1010.07	20162.00
1010.49	20074.00
1010.92	20117.00
1011.34	20292.00
1011.77	20129.00
1012.19	20086.00
1012.62	19920.00
1013.04	19694.00
1013.46	19199.00
1013.89	18769.00
1014.31	18411.00
1014.74	18183.00
1015.16	17943.00
1015.59	17692.00
1016.01	17799.00
1016.44	17799.00
1016.86	18959.00
1017.28	18003.00
1017.71	18020.00
1018.13	18346.00
1018.56	18547.00
1018.98	18503.00
1019.40	18584.00
1019.83	18938.00
1020.25	18882.00
1020.68	19096.00
1021.10	19234.00
1021.52	19287.00
1021.95	19598.00
1022.37	19428.00
1022.79	19350.00
1023.22	19031.00
1023.64	18872.00
1024.07	18671.00
1024.49	18509.00
1024.91	18163.00
1025.34	17911.00
1025.76	18040.00
1026.18	17710.00
1026.61	17513.00
1027.03	17398.00
1027.45	17554.00
1027.88	17493.00
1028.30	17707.00
1028.72	17757.00
1029.15	17811.00
1029.57	18066.00
1029.99	18023.00
1030.41	17917.00
1030.84	17785.00
1031.26	17870.00
1031.68	17654.00
1032.11	17549.00
1032.53	17332.00
1032.95	17028.00
1033.37	16881.00
1033.80	16606.00
1034.22	16345.00
1034.64	16165.00
1035.06	15779.00
1035.49	15515.00
1035.91	15345.00
1036.33	15254.00
1036.75	15176.00
1037.18	14951.00
1037.60	14980.00
1038.02	14913.00
1038.44	14968.00
1038.87	14845.00
1039.29	14955.00
1039.71	14889.00
1040.13	14963.00
1040.55	15023.00
1040.98	15011.00
1041.40	14912.00
1041.82	14752.00
1042.24	14684.00
1042.66	14449.00
1043.09	14230.00
1043.51	14081.00
1043.93	13872.00
1044.35	13625.00
1044.77	13395.00
1045.20	13319.00
1045.62	13019.00
1046.04	12853.00
1046.46	12850.00
1046.88	12601.00
1047.30	12580.00
1047.72	12415.00
1048.15	12395.00
1048.57	12247.00
1048.99	12207.00
1049.41	12200.00
1049.83	12113.00
1050.25	12115.00
1050.67	12042.00
1051.09	11929.00
1051.52	11961.00
1051.94	11884.00
1052.36	11804.00
1052.78	11760.00
1053.20	11698.00
1053.62	11591.00
1054.04	11517.00
1054.46	11437.00
1054.88	11299.00
1055.30	11292.00
1055.72	11178.00
1056.14	10853.00
1056.57	10902.00
1056.99	10573.00
1057.41	10478.00
1057.83	10365.00
1058.25	10196.00
1058.67	10110.00
1059.09	10035.00
1059.51	9965.00
1059.93	9726.00
1060.35	9634.00
1060.77	9671.00
1061.19	9622.00
1061.61	9514.00
1062.03	9429.00
1062.45	9351.00
1062.87	9430.00
1063.29	9473.00
1063.71	9338.00
1064.13	9261.00
1064.55	9173.00
1064.97	9255.00
1065.39	9028.00
1065.81	9083.00
1066.23	8875.00
1066.65	8883.00
1067.07	8851.00
1067.49	8736.00
1067.91	8557.00
1068.33	8489.00
1068.75	8455.00
1069.17	8454.00
1069.59	8327.00
1070.00	8167.00
1070.42	8197.00
1070.84	8055.00
1071.26	7950.00
1071.68	7870.00
1072.10	7830.00
1072.52	7832.00
1072.94	7800.00
1073.36	7857.00
1073.78	7715.00
1074.20	7739.00
1074.62	7716.00
1075.03	7711.00
1075.45	7745.00
1075.87	7684.00
1076.29	7577.00
1076.71	7663.00
1077.13	7666.00
1077.55	7393.00
1077.97	7408.00
1078.38	7331.00
1078.80	7243.00
1079.22	7161.00
1079.64	7103.00
1080.06	7021.00
1080.48	6926.00
1080.89	6861.00
1081.31	6807.00
1081.73	6779.00
1082.15	6685.00
1082.57	6771.00
1082.99	6674.00
1083.40	6572.00
1083.82	6639.00
1084.24	6451.00
1084.66	6488.00
1085.08	6454.00
1085.49	6379.00
1085.91	6448.00
1086.33	7682.00
1086.75	6455.00
1087.17	6328.00
1087.58	6380.00
1088.00	6361.00
1088.42	6329.00
1088.84	6243.00
1089.25	6133.00
1089.67	6152.00
1090.09	6055.00
1090.51	5934.00
1090.92	5942.00
1091.34	5856.00
1091.76	5787.00
1092.18	5708.00
1092.59	5688.00
1093.01	5604.00
1093.43	5620.00
1093.84	5504.00
1094.26	5481.00
1094.68	5503.00
1095.10	5355.00
1095.51	5394.00
1095.93	5328.00
1096.35	5366.00
1096.76	5348.00
1097.18	5319.00
1097.60	5265.00
1098.01	5256.00
1098.43	5148.00
1098.85	5158.00
1099.26	5118.00
1099.68	5103.00
1100.10	4951.00
1100.51	4898.00
1100.93	4808.00
1101.35	4851.00
1101.76	4781.00
1102.18	5282.00
1102.60	4817.00
1103.01	4621.00
1103.43	4634.00
1103.84	4683.00
1104.26	4595.00
1104.68	4652.00
1105.09	4568.00
1105.51	4507.00
1105.92	4539.00
1106.34	4457.00
1106.76	4434.00
1107.17	4415.00
1107.59	4353.00
1108.00	4228.00
1108.42	4235.00
1108.83	4183.00
1109.25	4104.00
1109.67	4081.00
1110.08	4143.00
1110.50	4055.00
1110.91	4047.00
1111.33	3983.00
1111.74	3987.00
1112.16	3929.00
1112.57	3914.00
1112.99	3827.00
1113.41	3834.00
1113.82	3736.00
1114.24	3718.00
1114.65	3633.00
1115.07	3517.00
1115.48	3357.00
1115.90	2187.00
1116.31	2215.00
1116.73	2215.00
1117.14	2216.00
>>>>>End Processed Spectral Data<<<<<
