SpectraSuite Data File
++++++++++++++++++++++++++++++++++++
Date: Tue May 29 13:10:17 EEST 2018
User: CanSEE
Dark Spectrum Present: No
Reference Spectrum Present: No
Number of Sampled Component Spectra: 1
Spectrometers: MAYP11278
Integration Time (usec): 230000 (MAYP11278)
Spectra Averaged: 1 (MAYP11278)
Boxcar Smoothing: 0 (MAYP11278)
Correct for Electrical Dark: No (MAYP11278)
Strobe/Lamp Enabled: No (MAYP11278)
Correct for Detector Non-linearity: No (MAYP11278)
Correct for Stray Light: No (MAYP11278)
Number of Pixels in Processed Spectrum: 2068
>>>>>Begin Processed Spectral Data<<<<<
187.82	2341.00
188.30	2234.00
188.78	2209.00
189.26	2217.00
189.73	3225.00
190.21	3376.00
190.69	3520.00
191.17	3553.00
191.64	3610.00
192.12	3537.00
192.60	3547.00
193.07	3520.00
193.55	3548.00
194.03	3533.00
194.51	3556.00
194.98	3529.00
195.46	3578.00
195.94	3513.00
196.42	3535.00
196.89	3656.00
197.37	3556.00
197.85	3506.00
198.32	3496.00
198.80	3537.00
199.28	3566.00
199.76	3581.00
200.23	3525.00
200.71	3537.00
201.19	3598.00
201.66	3539.00
202.14	3547.00
202.62	3457.00
203.09	3577.00
203.57	3479.00
204.05	3587.00
204.53	3559.00
205.00	3481.00
205.48	3552.00
205.96	3612.00
206.43	3502.00
206.91	3569.00
207.39	3671.00
207.86	3523.00
208.34	3574.00
208.82	3539.00
209.29	3549.00
209.77	3571.00
210.25	3551.00
210.72	3521.00
211.20	3577.00
211.68	3548.00
212.15	3556.00
212.63	3624.00
213.11	3581.00
213.58	3517.00
214.06	3614.00
214.53	3553.00
215.01	3595.00
215.49	3581.00
215.96	3595.00
216.44	3562.00
216.92	3589.00
217.39	3551.00
217.87	3590.00
218.35	3572.00
218.82	3521.00
219.30	3539.00
219.77	3543.00
220.25	3534.00
220.73	3647.00
221.20	3478.00
221.68	3574.00
222.15	3538.00
222.63	3584.00
223.11	3507.00
223.58	3578.00
224.06	3553.00
224.53	3536.00
225.01	3479.00
225.49	3503.00
225.96	3512.00
226.44	3569.00
226.91	3553.00
227.39	3550.00
227.87	3575.00
228.34	3546.00
228.82	3607.00
229.29	3523.00
229.77	3567.00
230.24	3535.00
230.72	3577.00
231.20	3603.00
231.67	3514.00
232.15	3528.00
232.62	3492.00
233.10	3507.00
233.57	3549.00
234.05	3713.00
234.53	3565.00
235.00	3481.00
235.48	3531.00
235.95	3519.00
236.43	3583.00
236.90	3633.00
237.38	3535.00
237.85	3537.00
238.33	3534.00
238.80	3566.00
239.28	3518.00
239.75	3503.00
240.23	3585.00
240.71	3612.00
241.18	3563.00
241.66	3525.00
242.13	3565.00
242.61	3578.00
243.08	3526.00
243.56	3547.00
244.03	3568.00
244.51	3685.00
244.98	3539.00
245.46	3614.00
245.93	4768.00
246.41	3484.00
246.88	3565.00
247.36	3557.00
247.83	3562.00
248.31	3569.00
248.78	3512.00
249.26	3591.00
249.73	3585.00
250.21	3574.00
250.68	3605.00
251.16	3515.00
251.63	3595.00
252.10	3642.00
252.58	3587.00
253.05	3593.00
253.53	3561.00
254.00	3565.00
254.48	3586.00
254.95	3570.00
255.43	3638.00
255.90	3533.00
256.38	3569.00
256.85	3610.00
257.33	3592.00
257.80	3687.00
258.27	3599.00
258.75	3593.00
259.22	3511.00
259.70	3583.00
260.17	3600.00
260.65	3560.00
261.12	3560.00
261.59	3628.00
262.07	3557.00
262.54	3606.00
263.02	3562.00
263.49	3530.00
263.97	3574.00
264.44	3648.00
264.91	3565.00
265.39	3565.00
265.86	3587.00
266.34	3635.00
266.81	3570.00
267.28	3584.00
267.76	3597.00
268.23	3582.00
268.71	3521.00
269.18	3532.00
269.65	3517.00
270.13	3597.00
270.60	3602.00
271.08	3575.00
271.55	3533.00
272.02	3553.00
272.50	3529.00
272.97	3481.00
273.44	3572.00
273.92	3720.00
274.39	3621.00
274.87	3586.00
275.34	3578.00
275.81	3513.00
276.29	3533.00
276.76	3564.00
277.23	3459.00
277.71	3525.00
278.18	3441.00
278.65	3639.00
279.13	3496.00
279.60	3506.00
280.07	3803.00
280.55	3753.00
281.02	3865.00
281.50	3679.00
281.97	3692.00
282.44	3601.00
282.91	3626.00
283.39	3651.00
283.86	3584.00
284.33	3558.00
284.81	3653.00
285.28	3607.00
285.75	3660.00
286.23	3614.00
286.70	3524.00
287.17	3618.00
287.65	3667.00
288.12	3564.00
288.59	3555.00
289.07	3485.00
289.54	3634.00
290.01	3563.00
290.48	3598.00
290.96	3547.00
291.43	3612.00
291.90	3687.00
292.38	3545.00
292.85	3605.00
293.32	3562.00
293.79	3634.00
294.27	3648.00
294.74	3577.00
295.21	3618.00
295.69	3617.00
296.16	3713.00
296.63	3689.00
297.10	3623.00
297.58	3621.00
298.05	3625.00
298.52	3591.00
298.99	3643.00
299.47	3575.00
299.94	3589.00
300.41	3547.00
300.88	3631.00
301.36	3638.00
301.83	3649.00
302.30	3515.00
302.77	3600.00
303.25	3593.00
303.72	3587.00
304.19	3561.00
304.66	3542.00
305.13	3621.00
305.61	3593.00
306.08	3611.00
306.55	3563.00
307.02	3579.00
307.49	3551.00
307.97	3585.00
308.44	3558.00
308.91	3570.00
309.38	3621.00
309.86	3606.00
310.33	3591.00
310.80	3608.00
311.27	3543.00
311.74	3624.00
312.21	3643.00
312.69	3691.00
313.16	3590.00
313.63	3575.00
314.10	3583.00
314.57	3605.00
315.05	3589.00
315.52	3624.00
315.99	3621.00
316.46	3576.00
316.93	3629.00
317.40	3610.00
317.88	3718.00
318.35	3571.00
318.82	3559.00
319.29	3547.00
319.76	3607.00
320.23	3713.00
320.70	3630.00
321.18	3595.00
321.65	3546.00
322.12	3563.00
322.59	3704.00
323.06	3565.00
323.53	3696.00
324.00	3569.00
324.48	3602.00
324.95	3595.00
325.42	3597.00
325.89	3595.00
326.36	3607.00
326.83	3656.00
327.30	3652.00
327.77	3647.00
328.24	3630.00
328.72	3611.00
329.19	3632.00
329.66	3627.00
330.13	3617.00
330.60	3625.00
331.07	3659.00
331.54	3735.00
332.01	3587.00
332.48	3725.00
332.95	3701.00
333.43	3656.00
333.90	3667.00
334.37	3655.00
334.84	3650.00
335.31	3783.00
335.78	3611.00
336.25	3645.00
336.72	3600.00
337.19	3643.00
337.66	3585.00
338.13	3606.00
338.60	3651.00
339.07	3635.00
339.54	3567.00
340.01	3613.00
340.49	3520.00
340.96	3620.00
341.43	3664.00
341.90	3504.00
342.37	3582.00
342.84	3619.00
343.31	3567.00
343.78	3543.00
344.25	3533.00
344.72	3569.00
345.19	3574.00
345.66	3574.00
346.13	3593.00
346.60	3520.00
347.07	3653.00
347.54	3534.00
348.01	3604.00
348.48	3576.00
348.95	3523.00
349.42	3547.00
349.89	3596.00
350.36	3574.00
350.83	3511.00
351.30	3563.00
351.77	3642.00
352.24	3543.00
352.71	3585.00
353.18	3544.00
353.65	3594.00
354.12	3539.00
354.59	3574.00
355.06	3533.00
355.53	3640.00
356.00	3553.00
356.47	3615.00
356.94	3517.00
357.41	3687.00
357.88	3610.00
358.35	3545.00
358.82	3565.00
359.28	3563.00
359.75	3536.00
360.22	3667.00
360.69	3639.00
361.16	3595.00
361.63	3587.00
362.10	3570.00
362.57	3614.00
363.04	3593.00
363.51	3707.00
363.98	3625.00
364.45	3518.00
364.92	3603.00
365.39	3559.00
365.86	3521.00
366.32	3599.00
366.79	3580.00
367.26	4766.00
367.73	3600.00
368.20	3541.00
368.67	3650.00
369.14	3553.00
369.61	3637.00
370.08	3592.00
370.55	3564.00
371.02	4302.00
371.48	3565.00
371.95	3541.00
372.42	3512.00
372.89	3589.00
373.36	3611.00
373.83	3516.00
374.30	3578.00
374.77	3605.00
375.23	3569.00
375.70	3661.00
376.17	3621.00
376.64	3555.00
377.11	3578.00
377.58	3636.00
378.05	3583.00
378.51	3593.00
378.98	3637.00
379.45	3630.00
379.92	3665.00
380.39	3749.00
380.86	3581.00
381.33	3656.00
381.79	3663.00
382.26	3571.00
382.73	3610.00
383.20	3585.00
383.67	3614.00
384.14	3637.00
384.60	3815.00
385.07	3603.00
385.54	3607.00
386.01	3592.00
386.48	3714.00
386.94	3590.00
387.41	3540.00
387.88	3655.00
388.35	3621.00
388.82	3625.00
389.28	3604.00
389.75	3593.00
390.22	3611.00
390.69	3613.00
391.16	3620.00
391.62	3578.00
392.09	3602.00
392.56	3599.00
393.03	3583.00
393.50	3747.00
393.96	3567.00
394.43	3656.00
394.90	3600.00
395.37	3671.00
395.83	3795.00
396.30	3551.00
396.77	3605.00
397.24	3663.00
397.70	3581.00
398.17	3609.00
398.64	3569.00
399.11	3577.00
399.57	3667.00
400.04	3599.00
400.51	3661.00
400.98	3607.00
401.44	3649.00
401.91	3624.00
402.38	3675.00
402.84	3583.00
403.31	3730.00
403.78	3648.00
404.25	3725.00
404.71	3710.00
405.18	3685.00
405.65	3592.00
406.12	3708.00
406.58	3657.00
407.05	3802.00
407.52	3706.00
407.98	4224.00
408.45	3745.00
408.92	3652.00
409.38	3767.00
409.85	3640.00
410.32	3765.00
410.78	3667.00
411.25	3838.00
411.72	3776.00
412.18	3665.00
412.65	3774.00
413.12	3786.00
413.59	3809.00
414.05	3821.00
414.52	3871.00
414.98	3773.00
415.45	3868.00
415.92	3817.00
416.38	3850.00
416.85	3913.00
417.32	3890.00
417.78	3866.00
418.25	3887.00
418.72	3896.00
419.18	3930.00
419.65	3852.00
420.12	3953.00
420.58	3981.00
421.05	3974.00
421.51	3997.00
421.98	3982.00
422.45	3953.00
422.91	3969.00
423.38	4051.00
423.85	4059.00
424.31	4072.00
424.78	4058.00
425.24	4094.00
425.71	4153.00
426.18	4124.00
426.64	4141.00
427.11	4118.00
427.57	4161.00
428.04	4131.00
428.51	4206.00
428.97	4128.00
429.44	4032.00
429.90	4144.00
430.37	4137.00
430.83	4058.00
431.30	4157.00
431.77	4371.00
432.23	4312.00
432.70	4279.00
433.16	4238.00
433.63	4229.00
434.09	4278.00
434.56	4398.00
435.03	4349.00
435.49	4421.00
435.96	4461.00
436.42	4363.00
436.89	4425.00
437.35	4401.00
437.82	4453.00
438.28	4339.00
438.75	4397.00
439.21	4628.00
439.68	4457.00
440.14	4525.00
440.61	4545.00
441.07	4541.00
441.54	4552.00
442.00	4723.00
442.47	4579.00
442.94	4647.00
443.40	4639.00
443.87	4601.00
444.33	4731.00
444.80	4687.00
445.26	4675.00
445.73	4666.00
446.19	4735.00
446.65	4718.00
447.12	4838.00
447.58	4788.00
448.05	4831.00
448.51	4874.00
448.98	4883.00
449.44	4941.00
449.91	4943.00
450.37	4957.00
450.84	5049.00
451.30	4968.00
451.77	5003.00
452.23	4911.00
452.70	5030.00
453.16	4977.00
453.62	5032.00
454.09	4998.00
454.55	5107.00
455.02	5053.00
455.48	5058.00
455.95	5215.00
456.41	5048.00
456.88	5163.00
457.34	5168.00
457.80	5130.00
458.27	5048.00
458.73	5171.00
459.20	5145.00
459.66	5219.00
460.13	5116.00
460.59	5211.00
461.05	5353.00
461.52	5245.00
461.98	5228.00
462.45	5135.00
462.91	5260.00
463.37	5229.00
463.84	5165.00
464.30	5180.00
464.76	5115.00
465.23	5194.00
465.69	5225.00
466.16	5176.00
466.62	5131.00
467.08	5171.00
467.55	5183.00
468.01	5203.00
468.48	5282.00
468.94	5227.00
469.40	5176.00
469.87	5159.00
470.33	5211.00
470.79	5237.00
471.26	5236.00
471.72	5319.00
472.18	5319.00
472.65	5324.00
473.11	5355.00
473.57	5295.00
474.04	5301.00
474.50	5402.00
474.96	5296.00
475.43	5382.00
475.89	5336.00
476.35	5359.00
476.82	5403.00
477.28	5456.00
477.74	5487.00
478.21	5444.00
478.67	5519.00
479.13	5418.00
479.59	5617.00
480.06	5579.00
480.52	5501.00
480.98	5463.00
481.45	5567.00
481.91	5542.00
482.37	5506.00
482.84	5560.00
483.30	5454.00
483.76	5465.00
484.22	5540.00
484.69	5462.00
485.15	5359.00
485.61	5152.00
486.07	5183.00
486.54	5215.00
487.00	5422.00
487.46	5396.00
487.92	5425.00
488.39	5506.00
488.85	5538.00
489.31	5585.00
489.77	5809.00
490.24	5599.00
490.70	5751.00
491.16	5653.00
491.62	5630.00
492.09	5560.00
492.55	5798.00
493.01	5837.00
493.47	5801.00
493.94	5830.00
494.40	5900.00
494.86	5983.00
495.32	5895.00
495.78	6033.00
496.25	6054.00
496.71	6099.00
497.17	6129.00
497.63	6102.00
498.09	6111.00
498.56	6167.00
499.02	6256.00
499.48	6453.00
499.94	6298.00
500.40	6303.00
500.87	6326.00
501.33	6352.00
501.79	6465.00
502.25	6579.00
502.71	6954.00
503.17	6759.00
503.64	6782.00
504.10	6792.00
504.56	7019.00
505.02	7058.00
505.48	7243.00
505.94	7352.00
506.40	7379.00
506.87	7389.00
507.33	7487.00
507.79	7515.00
508.25	7729.00
508.71	7917.00
509.17	8005.00
509.63	8047.00
510.10	8261.00
510.56	8362.00
511.02	8708.00
511.48	8926.00
511.94	8805.00
512.40	8892.00
512.86	9068.00
513.32	9321.00
513.78	9313.00
514.25	9501.00
514.71	10436.00
515.17	9999.00
515.63	10162.00
516.09	9892.00
516.55	9833.00
517.01	10001.00
517.47	10480.00
517.93	10563.00
518.39	10909.00
518.85	11463.00
519.32	11836.00
519.78	12263.00
520.24	12389.00
520.70	12633.00
521.16	13153.00
521.62	13442.00
522.08	13539.00
522.54	13611.00
523.00	14079.00
523.46	14593.00
523.92	15000.00
524.38	15461.00
524.84	15492.00
525.30	15741.00
525.76	15683.00
526.22	15090.00
526.68	15161.00
527.14	15747.00
527.60	16529.00
528.06	17015.00
528.52	17581.00
528.98	17973.00
529.44	17744.00
529.90	18059.00
530.36	18623.00
530.82	18950.00
531.28	19011.00
531.74	18856.00
532.20	18511.00
532.66	18400.00
533.12	19105.00
533.58	19497.00
534.04	19577.00
534.50	19758.00
534.96	20133.00
535.42	20703.00
535.88	20742.00
536.34	20349.00
536.80	20089.00
537.26	20751.00
537.72	20998.00
538.18	20968.00
538.64	21166.00
539.10	20939.00
539.56	20857.00
540.02	20625.00
540.48	20596.00
540.94	21028.00
541.40	21449.00
541.86	21648.00
542.32	21805.00
542.78	21644.00
543.24	22072.00
543.69	22225.00
544.15	22539.00
544.61	22502.00
545.07	22572.00
545.53	22697.00
545.99	22779.00
546.45	22975.00
546.91	22879.00
547.37	22609.00
547.83	22726.00
548.29	23195.00
548.74	23485.00
549.20	23590.00
549.66	23793.00
550.12	23609.00
550.58	23553.00
551.04	23849.00
551.50	23986.00
551.96	24359.00
552.42	23842.00
552.87	23873.00
553.33	24205.00
553.79	24218.00
554.25	24394.00
554.71	24681.00
555.17	24399.00
555.63	24577.00
556.08	24120.00
556.54	24007.00
557.00	23713.00
557.46	23889.00
557.92	24018.00
558.38	23400.00
558.83	22981.00
559.29	23257.00
559.75	23386.00
560.21	23633.00
560.67	23978.00
561.13	23712.00
561.58	23198.00
562.04	23391.00
562.50	23358.00
562.96	23511.00
563.42	23132.00
563.87	22967.00
564.33	23113.00
564.79	22823.00
565.25	22458.00
565.71	22179.00
566.16	22276.00
566.62	22486.00
567.08	22397.00
567.54	22301.00
568.00	21914.00
568.45	21497.00
568.91	21509.00
569.37	21593.00
569.83	21095.00
570.28	20759.00
570.74	20303.00
571.20	20483.00
571.66	20723.00
572.11	20823.00
572.57	20724.00
573.03	20334.00
573.49	20317.00
573.94	20343.00
574.40	20027.00
574.86	19759.00
575.32	19369.00
575.77	19363.00
576.23	19108.00
576.69	19351.00
577.15	19161.00
577.60	18946.00
578.06	18570.00
578.52	18566.00
578.97	18637.00
579.43	18478.00
579.89	18668.00
580.34	18586.00
580.80	18515.00
581.26	18479.00
581.72	18336.00
582.17	18545.00
582.63	18388.00
583.09	18343.00
583.54	18216.00
584.00	18188.00
584.46	18021.00
584.91	17862.00
585.37	17605.00
585.83	17306.00
586.28	17386.00
586.74	17553.00
587.20	17569.00
587.65	17461.00
588.11	17054.00
588.57	16243.00
589.02	15510.00
589.48	15654.00
589.94	16235.00
590.39	16590.00
590.85	16617.00
591.30	16574.00
591.76	16618.00
592.22	16537.00
592.67	16564.00
593.13	16551.00
593.59	16503.00
594.04	16339.00
594.50	16208.00
594.95	16275.00
595.41	16409.00
595.87	16413.00
596.32	16591.00
596.78	16523.00
597.23	16350.00
597.69	16312.00
598.15	16224.00
598.60	16281.00
599.06	16415.00
599.51	16277.00
599.97	16364.00
600.43	16251.00
600.88	16154.00
601.34	16116.00
601.79	15863.00
602.25	16025.00
602.70	16087.00
603.16	16158.00
603.61	16121.00
604.07	16107.00
604.53	16075.00
604.98	16030.00
605.44	15864.00
605.89	15709.00
606.35	15630.00
606.80	15811.00
607.26	15571.00
607.71	15443.00
608.17	15357.00
608.62	15256.00
609.08	15047.00
609.53	15046.00
609.99	14933.00
610.44	14763.00
610.90	14813.00
611.35	14646.00
611.81	14755.00
612.26	14474.00
612.72	14405.00
613.17	14433.00
613.63	14054.00
614.08	13931.00
614.54	14072.00
614.99	13975.00
615.45	13897.00
615.90	13675.00
616.36	13285.00
616.81	13397.00
617.27	13597.00
617.72	13664.00
618.18	13681.00
618.63	13479.00
619.09	13441.00
619.54	13635.00
619.99	13586.00
620.45	13555.00
620.90	13621.00
621.36	13327.00
621.81	13273.00
622.27	13267.00
622.72	13140.00
623.18	13094.00
623.63	13062.00
624.08	13077.00
624.54	12912.00
624.99	12853.00
625.45	12841.00
625.90	12828.00
626.35	13034.00
626.81	13063.00
627.26	12874.00
627.72	12724.00
628.17	12725.00
628.62	12795.00
629.08	12747.00
629.53	12812.00
629.99	12733.00
630.44	12796.00
630.89	12838.00
631.35	12691.00
631.80	12654.00
632.26	12907.00
632.71	12777.00
633.16	12828.00
633.62	12691.00
634.07	12731.00
634.52	12751.00
634.98	12914.00
635.43	12729.00
635.88	12491.00
636.34	12562.00
636.79	12600.00
637.24	12541.00
637.70	12513.00
638.15	12351.00
638.60	12369.00
639.06	12170.00
639.51	12029.00
639.96	11849.00
640.42	11811.00
640.87	11680.00
641.32	11489.00
641.78	11440.00
642.23	11327.00
642.68	11309.00
643.14	11114.00
643.59	11082.00
644.04	10951.00
644.49	10999.00
644.95	10800.00
645.40	10611.00
645.85	10446.00
646.31	10291.00
646.76	10249.00
647.21	10167.00
647.66	9978.00
648.12	9949.00
648.57	9831.00
649.02	9845.00
649.47	9531.00
649.93	9763.00
650.38	9680.00
650.83	9751.00
651.28	9541.00
651.74	9442.00
652.19	9371.00
652.64	9476.00
653.09	9376.00
653.55	9330.00
654.00	9297.00
654.45	9226.00
654.90	9065.00
655.35	8743.00
655.81	8400.00
656.26	7934.00
656.71	8234.00
657.16	8487.00
657.62	8705.00
658.07	8611.00
658.52	8645.00
658.97	8437.00
659.42	8595.00
659.88	8319.00
660.33	8379.00
660.78	8264.00
661.23	8135.00
661.68	8104.00
662.13	8048.00
662.59	7845.00
663.04	7814.00
663.49	7700.00
663.94	7589.00
664.39	7576.00
664.84	7503.00
665.30	7478.00
665.75	7315.00
666.20	7315.00
666.65	7248.00
667.10	7279.00
667.55	7123.00
668.00	7006.00
668.46	7039.00
668.91	6892.00
669.36	7014.00
669.81	6870.00
670.26	6814.00
670.71	6823.00
671.16	6798.00
671.61	6767.00
672.06	6755.00
672.52	6745.00
672.97	6687.00
673.42	6699.00
673.87	6805.00
674.32	6551.00
674.77	6641.00
675.22	6462.00
675.67	6533.00
676.12	6536.00
676.57	6521.00
677.02	6527.00
677.47	6561.00
677.93	6706.00
678.38	6554.00
678.83	6533.00
679.28	6526.00
679.73	6585.00
680.18	6553.00
680.63	6600.00
681.08	6669.00
681.53	6654.00
681.98	6757.00
682.43	6796.00
682.88	6839.00
683.33	6887.00
683.78	6984.00
684.23	7145.00
684.68	7143.00
685.13	7324.00
685.58	7382.00
686.03	7461.00
686.48	7265.00
686.93	6893.00
687.38	6972.00
687.83	7596.00
688.28	7971.00
688.73	8295.00
689.18	8496.00
689.63	8686.00
690.08	9117.00
690.53	9538.00
690.98	10011.00
691.43	10472.00
691.88	10961.00
692.33	11561.00
692.78	12045.00
693.23	12502.00
693.68	12963.00
694.13	13552.00
694.58	14276.00
695.03	15152.00
695.48	15777.00
695.93	16321.00
696.38	17467.00
696.83	18270.00
697.28	18824.00
697.72	19342.00
698.17	20132.00
698.62	20511.00
699.07	21375.00
699.52	22020.00
699.97	22738.00
700.42	23417.00
700.87	24197.00
701.32	25036.00
701.77	25339.00
702.22	26247.00
702.67	26803.00
703.11	27913.00
703.56	28749.00
704.01	29516.00
704.46	30734.00
704.91	31185.00
705.36	31994.00
705.81	32337.00
706.26	32782.00
706.70	33304.00
707.15	34184.00
707.60	35008.00
708.05	35650.00
708.50	36253.00
708.95	36754.00
709.40	37448.00
709.84	38035.00
710.29	38540.00
710.74	38848.00
711.19	39330.00
711.64	39856.00
712.09	40560.00
712.53	40874.00
712.98	41473.00
713.43	41799.00
713.88	42296.00
714.33	42470.00
714.78	42402.00
715.22	42723.00
715.67	43060.00
716.12	42684.00
716.57	41163.00
717.02	39613.00
717.46	38641.00
717.91	38255.00
718.36	37397.00
718.81	37162.00
719.26	37416.00
719.70	38247.00
720.15	38588.00
720.60	40497.00
721.05	43280.00
721.49	45478.00
721.94	46271.00
722.39	46072.00
722.84	44932.00
723.28	43283.00
723.73	42755.00
724.18	42952.00
724.63	43861.00
725.07	43723.00
725.52	44746.00
725.97	45253.00
726.42	45700.00
726.86	46318.00
727.31	45698.00
727.76	45761.00
728.21	46876.00
728.65	46697.00
729.10	46455.00
729.55	47738.00
729.99	48339.00
730.44	48745.00
730.89	49195.00
731.33	50248.00
731.78	51337.00
732.23	52507.00
732.68	53359.00
733.12	54078.00
733.57	55161.00
734.02	55928.00
734.46	56696.00
734.91	56345.00
735.36	56539.00
735.80	56861.00
736.25	57373.00
736.70	57450.00
737.14	57990.00
737.59	58448.00
738.04	58577.00
738.48	57792.00
738.93	57864.00
739.37	58779.00
739.82	59510.00
740.27	59876.00
740.71	59441.00
741.16	59389.00
741.61	59382.00
742.05	59716.00
742.50	60044.00
742.94	60487.00
743.39	60724.00
743.84	61181.00
744.28	60908.00
744.73	61022.00
745.18	61532.00
745.62	62191.00
746.07	61903.00
746.51	61725.00
746.96	61865.00
747.40	61610.00
747.85	61522.00
748.30	61287.00
748.74	61273.00
749.19	60891.00
749.63	61128.00
750.08	61444.00
750.52	61280.00
750.97	61093.00
751.42	61211.00
751.86	61259.00
752.31	61191.00
752.75	60780.00
753.20	60773.00
753.64	61017.00
754.09	60870.00
754.53	61328.00
754.98	61073.00
755.42	60712.00
755.87	60770.00
756.31	60511.00
756.76	59955.00
757.20	59638.00
757.65	59163.00
758.09	58330.00
758.54	56431.00
758.98	50495.00
759.43	39603.00
759.87	27906.00
760.32	20974.00
760.76	20457.00
761.21	25405.00
761.65	31537.00
762.10	33216.00
762.54	31652.00
762.99	29961.00
763.43	30690.00
763.88	32707.00
764.32	35693.00
764.77	38796.00
765.21	41734.00
765.66	44411.00
766.10	46798.00
766.54	49011.00
766.99	51315.00
767.43	53097.00
767.88	54677.00
768.32	55655.00
768.77	56360.00
769.21	57252.00
769.66	57708.00
770.10	58645.00
770.54	59246.00
770.99	58977.00
771.43	58797.00
771.88	58829.00
772.32	58796.00
772.76	58865.00
773.21	58752.00
773.65	58549.00
774.10	58077.00
774.54	57908.00
774.98	58204.00
775.43	58864.00
775.87	59199.00
776.31	59528.00
776.76	59445.00
777.20	59093.00
777.65	58579.00
778.09	58224.00
778.53	58086.00
778.98	57860.00
779.42	57558.00
779.86	57940.00
780.31	57604.00
780.75	58218.00
781.19	58303.00
781.64	58682.00
782.08	58612.00
782.52	58126.00
782.97	57466.00
783.41	57372.00
783.85	56547.00
784.30	56487.00
784.74	56384.00
785.18	56167.00
785.63	56135.00
786.07	56440.00
786.51	56461.00
786.95	56505.00
787.40	56354.00
787.84	56222.00
788.28	55696.00
788.73	55371.00
789.17	54789.00
789.61	54090.00
790.05	54017.00
790.50	53418.00
790.94	53430.00
791.38	53369.00
791.82	53540.00
792.27	53490.00
792.71	53785.00
793.15	53841.00
793.59	53620.00
794.04	53528.00
794.48	52892.00
794.92	52646.00
795.36	52161.00
795.81	51641.00
796.25	51553.00
796.69	51988.00
797.13	52589.00
797.57	53042.00
798.02	53404.00
798.46	53396.00
798.90	53330.00
799.34	52563.00
799.79	51967.00
800.23	51214.00
800.67	50765.00
801.11	50632.00
801.55	50460.00
801.99	50259.00
802.44	50348.00
802.88	50662.00
803.32	51181.00
803.76	51377.00
804.20	51673.00
804.64	51584.00
805.09	51576.00
805.53	51413.00
805.97	50890.00
806.41	50080.00
806.85	49635.00
807.29	49251.00
807.74	49142.00
808.18	49274.00
808.62	49202.00
809.06	49270.00
809.50	49263.00
809.94	49347.00
810.38	49395.00
810.82	49556.00
811.27	49129.00
811.71	48221.00
812.15	47161.00
812.59	45983.00
813.03	44748.00
813.47	43316.00
813.91	42251.00
814.35	41336.00
814.79	41101.00
815.23	40757.00
815.67	40248.00
816.12	40370.00
816.56	40404.00
817.00	40694.00
817.44	41006.00
817.88	40938.00
818.32	40170.00
818.76	40603.00
819.20	40405.00
819.64	40962.00
820.08	41309.00
820.52	42524.00
820.96	43307.00
821.40	42324.00
821.84	41096.00
822.28	39003.00
822.72	38488.00
823.16	38405.00
823.60	40597.00
824.04	43262.00
824.48	43785.00
824.92	43795.00
825.36	43728.00
825.80	43168.00
826.24	42805.00
826.68	42498.00
827.12	42286.00
827.56	41463.00
828.00	41249.00
828.44	41759.00
828.88	42303.00
829.32	42634.00
829.76	42675.00
830.20	43409.00
830.64	42826.00
831.08	42701.00
831.52	42154.00
831.96	41611.00
832.40	41072.00
832.84	41435.00
833.28	41991.00
833.72	42643.00
834.16	43400.00
834.60	44671.00
835.04	45151.00
835.48	45448.00
835.91	45382.00
836.35	45180.00
836.79	44777.00
837.23	44412.00
837.67	43865.00
838.11	43974.00
838.55	43745.00
838.99	43799.00
839.43	44234.00
839.87	44696.00
840.30	45190.00
840.74	46070.00
841.18	46311.00
841.62	46496.00
842.06	46631.00
842.50	46522.00
842.94	45571.00
843.38	45208.00
843.81	44342.00
844.25	43954.00
844.69	43773.00
845.13	43469.00
845.57	43804.00
846.01	43884.00
846.45	44234.00
846.88	44974.00
847.32	45452.00
847.76	45911.00
848.20	46174.00
848.64	45520.00
849.08	44712.00
849.51	44559.00
849.95	43768.00
850.39	43651.00
850.83	44128.00
851.27	43608.00
851.70	43199.00
852.14	42678.00
852.58	42210.00
853.02	40580.00
853.46	39469.00
853.89	39424.00
854.33	39411.00
854.77	41247.00
855.21	43841.00
855.65	45098.00
856.08	45755.00
856.52	45863.00
856.96	45496.00
857.40	44455.00
857.83	43747.00
858.27	42930.00
858.71	42419.00
859.15	42218.00
859.58	42471.00
860.02	42933.00
860.46	43628.00
860.89	44254.00
861.33	44736.00
861.77	45179.00
862.21	45380.00
862.64	45896.00
863.08	45683.00
863.52	45073.00
863.95	44332.00
864.39	43256.00
864.83	41586.00
865.27	39945.00
865.70	39612.00
866.14	38781.00
866.58	39043.00
867.01	40908.00
867.45	42621.00
867.89	43115.00
868.32	44188.00
868.76	44652.00
869.20	44852.00
869.63	44921.00
870.07	44146.00
870.51	43087.00
870.94	42245.00
871.38	41165.00
871.82	40682.00
872.25	40351.00
872.69	40277.00
873.13	40520.00
873.56	40918.00
874.00	41692.00
874.43	42224.00
874.87	42754.00
875.31	43249.00
875.74	43423.00
876.18	43995.00
876.61	43623.00
877.05	43135.00
877.49	42588.00
877.92	41885.00
878.36	41291.00
878.79	40381.00
879.23	39712.00
879.67	39114.00
880.10	39347.00
880.54	39286.00
880.97	39656.00
881.41	41230.00
881.84	42101.00
882.28	42780.00
882.72	43343.00
883.15	44061.00
883.59	43857.00
884.02	43718.00
884.46	43364.00
884.89	42712.00
885.33	41819.00
885.76	40677.00
886.20	39721.00
886.63	39029.00
887.07	39023.00
887.50	38901.00
887.94	39122.00
888.37	39507.00
888.81	40217.00
889.24	40594.00
889.68	40863.00
890.11	41470.00
890.55	42041.00
890.98	42324.00
891.42	42473.00
891.85	41883.00
892.29	41315.00
892.72	40418.00
893.16	39063.00
893.59	38025.00
894.03	37110.00
894.46	35905.00
894.90	34707.00
895.33	33158.00
895.77	33120.00
896.20	32899.00
896.63	33012.00
897.07	33194.00
897.50	32793.00
897.94	33148.00
898.37	34456.00
898.81	32271.00
899.24	32110.00
899.68	33887.00
900.11	33083.00
900.54	32272.00
900.98	31777.00
901.41	31516.00
901.85	31782.00
902.28	31986.00
902.71	32396.00
903.15	33532.00
903.58	34434.00
904.02	34589.00
904.45	34547.00
904.88	34398.00
905.32	34193.00
905.75	34084.00
906.18	32956.00
906.62	32996.00
907.05	32174.00
907.48	32367.00
907.92	31835.00
908.35	31969.00
908.79	31410.00
909.22	31082.00
909.65	30648.00
910.09	30680.00
910.52	30015.00
910.95	30260.00
911.38	30502.00
911.82	29342.00
912.25	30224.00
912.68	30580.00
913.12	30434.00
913.55	30653.00
913.98	31683.00
914.42	32974.00
914.85	33529.00
915.28	31809.00
915.72	31364.00
916.15	31024.00
916.58	30825.00
917.01	30065.00
917.45	29185.00
917.88	30183.00
918.31	30442.00
918.74	31646.00
919.18	32156.00
919.61	32134.00
920.04	32662.00
920.47	33137.00
920.91	33314.00
921.34	33301.00
921.77	33438.00
922.20	34033.00
922.64	33975.00
923.07	33584.00
923.50	33303.00
923.93	32646.00
924.37	32092.00
924.80	31806.00
925.23	31263.00
925.66	30084.00
926.09	28680.00
926.53	28068.00
926.96	27149.00
927.39	25816.00
927.82	24404.00
928.25	23623.00
928.69	22989.00
929.12	22762.00
929.55	21601.00
929.98	20744.00
930.41	19636.00
930.84	18487.00
931.28	17075.00
931.71	15668.00
932.14	14039.00
932.57	13482.00
933.00	12895.00
933.43	12282.00
933.86	11538.00
934.30	11027.00
934.73	12543.00
935.16	11931.00
935.59	11022.00
936.02	11788.00
936.45	11409.00
936.88	11621.00
937.31	12715.00
937.75	13221.00
938.18	14182.00
938.61	14597.00
939.04	15539.00
939.47	15265.00
939.90	13913.00
940.33	13478.00
940.76	12534.00
941.19	12044.00
941.62	11733.00
942.05	11547.00
942.48	10263.00
942.91	10459.00
943.35	11172.00
943.78	10299.00
944.21	10253.00
944.64	11288.00
945.07	11445.00
945.50	11191.00
945.93	11415.00
946.36	11918.00
946.79	12330.00
947.22	13021.00
947.65	12564.00
948.08	12099.00
948.51	13006.00
948.94	13371.00
949.37	12707.00
949.80	12124.00
950.23	12493.00
950.66	13028.00
951.09	12942.00
951.52	12314.00
951.95	12583.00
952.38	12955.00
952.81	13748.00
953.24	14759.00
953.67	14772.00
954.10	14574.00
954.53	15360.00
954.96	15073.00
955.39	15566.00
955.82	16542.00
956.25	15731.00
956.68	16243.00
957.11	16594.00
957.53	16104.00
957.96	15957.00
958.39	15642.00
958.82	14937.00
959.25	15532.00
959.68	16131.00
960.11	16486.00
960.54	16739.00
960.97	17737.00
961.40	18314.00
961.83	18039.00
962.26	18336.00
962.68	19945.00
963.11	20136.00
963.54	20216.00
963.97	20550.00
964.40	20539.00
964.83	21137.00
965.26	21233.00
965.69	20913.00
966.11	20645.00
966.54	20935.00
966.97	21964.00
967.40	22099.00
967.83	22112.00
968.26	22275.00
968.69	22239.00
969.11	22453.00
969.54	22336.00
969.97	22479.00
970.40	22844.00
970.83	22971.00
971.26	23004.00
971.68	23135.00
972.11	23397.00
972.54	23755.00
972.97	23504.00
973.40	23074.00
973.82	23043.00
974.25	23116.00
974.68	22686.00
975.11	22400.00
975.54	21926.00
975.96	21715.00
976.39	21780.00
976.82	21836.00
977.25	21539.00
977.67	21551.00
978.10	21618.00
978.53	21877.00
978.96	22462.00
979.38	22799.00
979.81	23247.00
980.24	24069.00
980.67	24546.00
981.09	24710.00
981.52	25044.00
981.95	25018.00
982.38	25206.00
982.80	25492.00
983.23	25712.00
983.66	25750.00
984.08	25483.00
984.51	25361.00
984.94	25008.00
985.37	24679.00
985.79	24165.00
986.22	23653.00
986.65	23405.00
987.07	23054.00
987.50	23105.00
987.93	23087.00
988.35	23174.00
988.78	23408.00
989.21	23635.00
989.63	24020.00
990.06	24245.00
990.49	24638.00
990.91	25079.00
991.34	25243.00
991.77	25431.00
992.19	25347.00
992.62	25261.00
993.05	25073.00
993.47	24945.00
993.90	24543.00
994.32	24254.00
994.75	23735.00
995.18	23427.00
995.60	23065.00
996.03	22637.00
996.45	22689.00
996.88	22254.00
997.31	22131.00
997.73	22234.00
998.16	22185.00
998.58	22480.00
999.01	22558.00
999.44	22799.00
999.86	23076.00
1000.29	23161.00
1000.71	23419.00
1001.14	23521.00
1001.56	23385.00
1001.99	23084.00
1002.41	22897.00
1002.84	22383.00
1003.27	22005.00
1003.69	21627.00
1004.12	21035.00
1004.54	20669.00
1004.97	20235.00
1005.39	20128.00
1005.82	20023.00
1006.24	19896.00
1006.67	19779.00
1007.09	19717.00
1007.52	19753.00
1007.94	19778.00
1008.37	19832.00
1008.79	19918.00
1009.22	19970.00
1009.64	20019.00
1010.07	20049.00
1010.49	20270.00
1010.92	20174.00
1011.34	20230.00
1011.77	20222.00
1012.19	20191.00
1012.62	19883.00
1013.04	19668.00
1013.46	19265.00
1013.89	18764.00
1014.31	18509.00
1014.74	18109.00
1015.16	18009.00
1015.59	17790.00
1016.01	17867.00
1016.44	17937.00
1016.86	18723.00
1017.28	18017.00
1017.71	18144.00
1018.13	18483.00
1018.56	18540.00
1018.98	18637.00
1019.40	18703.00
1019.83	19021.00
1020.25	19039.00
1020.68	19098.00
1021.10	19441.00
1021.52	19502.00
1021.95	19648.00
1022.37	19566.00
1022.79	19305.00
1023.22	19155.00
1023.64	19015.00
1024.07	18845.00
1024.49	18450.00
1024.91	18204.00
1025.34	17979.00
1025.76	17989.00
1026.18	17682.00
1026.61	17649.00
1027.03	17337.00
1027.45	17529.00
1027.88	17610.00
1028.30	17837.00
1028.72	17743.00
1029.15	17949.00
1029.57	18024.00
1029.99	18088.00
1030.41	18037.00
1030.84	18112.00
1031.26	17801.00
1031.68	17733.00
1032.11	17630.00
1032.53	17388.00
1032.95	17221.00
1033.37	17002.00
1033.80	16715.00
1034.22	16277.00
1034.64	16184.00
1035.06	15959.00
1035.49	15648.00
1035.91	15489.00
1036.33	15171.00
1036.75	15053.00
1037.18	15159.00
1037.60	14958.00
1038.02	14918.00
1038.44	15071.00
1038.87	15003.00
1039.29	15089.00
1039.71	15093.00
1040.13	14963.00
1040.55	15064.00
1040.98	15141.00
1041.40	15073.00
1041.82	14957.00
1042.24	14693.00
1042.66	14547.00
1043.09	14266.00
1043.51	14145.00
1043.93	13909.00
1044.35	13627.00
1044.77	13482.00
1045.20	13294.00
1045.62	13020.00
1046.04	12893.00
1046.46	12857.00
1046.88	12624.00
1047.30	12607.00
1047.72	12457.00
1048.15	12342.00
1048.57	12311.00
1048.99	12228.00
1049.41	12178.00
1049.83	12092.00
1050.25	12133.00
1050.67	11948.00
1051.09	11985.00
1051.52	11924.00
1051.94	11875.00
1052.36	11881.00
1052.78	11844.00
1053.20	11817.00
1053.62	11706.00
1054.04	11646.00
1054.46	11423.00
1054.88	11333.00
1055.30	11202.00
1055.72	11069.00
1056.14	10891.00
1056.57	10909.00
1056.99	10569.00
1057.41	10445.00
1057.83	10390.00
1058.25	10214.00
1058.67	10097.00
1059.09	9992.00
1059.51	9911.00
1059.93	9839.00
1060.35	9727.00
1060.77	9695.00
1061.19	9587.00
1061.61	9550.00
1062.03	9461.00
1062.45	9468.00
1062.87	9545.00
1063.29	9369.00
1063.71	9295.00
1064.13	9276.00
1064.55	9165.00
1064.97	9191.00
1065.39	9124.00
1065.81	8969.00
1066.23	9016.00
1066.65	8869.00
1067.07	8801.00
1067.49	8605.00
1067.91	8472.00
1068.33	8466.00
1068.75	8504.00
1069.17	8474.00
1069.59	8277.00
1070.00	8125.00
1070.42	8168.00
1070.84	8006.00
1071.26	7951.00
1071.68	7851.00
1072.10	7910.00
1072.52	7903.00
1072.94	7781.00
1073.36	7803.00
1073.78	7723.00
1074.20	7775.00
1074.62	7642.00
1075.03	7677.00
1075.45	7765.00
1075.87	7712.00
1076.29	7612.00
1076.71	7596.00
1077.13	7664.00
1077.55	7433.00
1077.97	7413.00
1078.38	7300.00
1078.80	7273.00
1079.22	7172.00
1079.64	7065.00
1080.06	7011.00
1080.48	7013.00
1080.89	6816.00
1081.31	6898.00
1081.73	6721.00
1082.15	6697.00
1082.57	6696.00
1082.99	6584.00
1083.40	6604.00
1083.82	6599.00
1084.24	6520.00
1084.66	6453.00
1085.08	6481.00
1085.49	6327.00
1085.91	6450.00
1086.33	7663.00
1086.75	6383.00
1087.17	6312.00
1087.58	6345.00
1088.00	6334.00
1088.42	6301.00
1088.84	6243.00
1089.25	6134.00
1089.67	6167.00
1090.09	5998.00
1090.51	5959.00
1090.92	5956.00
1091.34	5817.00
1091.76	5766.00
1092.18	5658.00
1092.59	5640.00
1093.01	5616.00
1093.43	5585.00
1093.84	5520.00
1094.26	5404.00
1094.68	5471.00
1095.10	5376.00
1095.51	5362.00
1095.93	5350.00
1096.35	5311.00
1096.76	5329.00
1097.18	5331.00
1097.60	5228.00
1098.01	5211.00
1098.43	5126.00
1098.85	5139.00
1099.26	5051.00
1099.68	5043.00
1100.10	4863.00
1100.51	4888.00
1100.93	4807.00
1101.35	4811.00
1101.76	4771.00
1102.18	5165.00
1102.60	4707.00
1103.01	4576.00
1103.43	4654.00
1103.84	4632.00
1104.26	4567.00
1104.68	4606.00
1105.09	4532.00
1105.51	4534.00
1105.92	4541.00
1106.34	4403.00
1106.76	4439.00
1107.17	4395.00
1107.59	4331.00
1108.00	4230.00
1108.42	4217.00
1108.83	4118.00
1109.25	4151.00
1109.67	4112.00
1110.08	4099.00
1110.50	4021.00
1110.91	4026.00
1111.33	3955.00
1111.74	3937.00
1112.16	3931.00
1112.57	3899.00
1112.99	3796.00
1113.41	3805.00
1113.82	3665.00
1114.24	3676.00
1114.65	3572.00
1115.07	3485.00
1115.48	3352.00
1115.90	2185.00
1116.31	2213.00
1116.73	2207.00
1117.14	2217.00
>>>>>End Processed Spectral Data<<<<<
