SpectraSuite Data File
++++++++++++++++++++++++++++++++++++
Date: Tue May 29 13:10:57 EEST 2018
User: CanSEE
Dark Spectrum Present: No
Reference Spectrum Present: No
Number of Sampled Component Spectra: 1
Spectrometers: MAYP11278
Integration Time (usec): 230000 (MAYP11278)
Spectra Averaged: 1 (MAYP11278)
Boxcar Smoothing: 0 (MAYP11278)
Correct for Electrical Dark: No (MAYP11278)
Strobe/Lamp Enabled: No (MAYP11278)
Correct for Detector Non-linearity: No (MAYP11278)
Correct for Stray Light: No (MAYP11278)
Number of Pixels in Processed Spectrum: 2068
>>>>>Begin Processed Spectral Data<<<<<
187.82	2339.00
188.30	2236.00
188.78	2206.00
189.26	2212.00
189.73	3205.00
190.21	3271.00
190.69	3419.00
191.17	3422.00
191.64	3480.00
192.12	3382.00
192.60	3411.00
193.07	3371.00
193.55	3429.00
194.03	3429.00
194.51	3411.00
194.98	3407.00
195.46	3455.00
195.94	3386.00
196.42	3394.00
196.89	3510.00
197.37	3403.00
197.85	3429.00
198.32	3434.00
198.80	3389.00
199.28	3430.00
199.76	3482.00
200.23	3441.00
200.71	3471.00
201.19	3461.00
201.66	3443.00
202.14	3419.00
202.62	3387.00
203.09	3445.00
203.57	3366.00
204.05	3435.00
204.53	3491.00
205.00	3373.00
205.48	3387.00
205.96	3471.00
206.43	3410.00
206.91	3441.00
207.39	3559.00
207.86	3451.00
208.34	3443.00
208.82	3437.00
209.29	3456.00
209.77	3433.00
210.25	3432.00
210.72	3413.00
211.20	3484.00
211.68	3415.00
212.15	3405.00
212.63	3508.00
213.11	3470.00
213.58	3413.00
214.06	3518.00
214.53	3445.00
215.01	3493.00
215.49	3457.00
215.96	3481.00
216.44	3460.00
216.92	3475.00
217.39	3445.00
217.87	3439.00
218.35	3476.00
218.82	3411.00
219.30	3391.00
219.77	3392.00
220.25	3458.00
220.73	3527.00
221.20	3399.00
221.68	3461.00
222.15	3451.00
222.63	3483.00
223.11	3433.00
223.58	3516.00
224.06	3456.00
224.53	3455.00
225.01	3437.00
225.49	3462.00
225.96	3411.00
226.44	3427.00
226.91	3486.00
227.39	3469.00
227.87	3466.00
228.34	3479.00
228.82	3495.00
229.29	3459.00
229.77	3423.00
230.24	3439.00
230.72	3454.00
231.20	3519.00
231.67	3453.00
232.15	3451.00
232.62	3381.00
233.10	3429.00
233.57	3477.00
234.05	3625.00
234.53	3458.00
235.00	3387.00
235.48	3411.00
235.95	3440.00
236.43	3507.00
236.90	3515.00
237.38	3437.00
237.85	3461.00
238.33	3437.00
238.80	3484.00
239.28	3477.00
239.75	3406.00
240.23	3479.00
240.71	3516.00
241.18	3452.00
241.66	3434.00
242.13	3486.00
242.61	3522.00
243.08	3412.00
243.56	3461.00
244.03	3508.00
244.51	3547.00
244.98	3431.00
245.46	3485.00
245.93	5139.00
246.41	3383.00
246.88	3456.00
247.36	3448.00
247.83	3446.00
248.31	3473.00
248.78	3393.00
249.26	3454.00
249.73	3521.00
250.21	3463.00
250.68	3514.00
251.16	3462.00
251.63	3567.00
252.10	3527.00
252.58	3465.00
253.05	3518.00
253.53	3432.00
254.00	3432.00
254.48	3471.00
254.95	3473.00
255.43	3489.00
255.90	3441.00
256.38	3477.00
256.85	3487.00
257.33	3493.00
257.80	3567.00
258.27	3484.00
258.75	3456.00
259.22	3445.00
259.70	3467.00
260.17	3563.00
260.65	3443.00
261.12	3479.00
261.59	3543.00
262.07	3409.00
262.54	3498.00
263.02	3469.00
263.49	3438.00
263.97	3489.00
264.44	3469.00
264.91	3429.00
265.39	3438.00
265.86	3518.00
266.34	3573.00
266.81	3432.00
267.28	3485.00
267.76	3500.00
268.23	3479.00
268.71	3381.00
269.18	3401.00
269.65	3406.00
270.13	3467.00
270.60	3516.00
271.08	3438.00
271.55	3477.00
272.02	3453.00
272.50	3422.00
272.97	3433.00
273.44	3460.00
273.92	3590.00
274.39	3493.00
274.87	3493.00
275.34	3440.00
275.81	3457.00
276.29	3436.00
276.76	3467.00
277.23	3351.00
277.71	3377.00
278.18	3365.00
278.65	3509.00
279.13	3375.00
279.60	3415.00
280.07	3726.00
280.55	3672.00
281.02	3718.00
281.50	3574.00
281.97	3611.00
282.44	3508.00
282.91	3501.00
283.39	3531.00
283.86	3476.00
284.33	3476.00
284.81	3549.00
285.28	3467.00
285.75	3484.00
286.23	3514.00
286.70	3447.00
287.17	3512.00
287.65	3603.00
288.12	3476.00
288.59	3482.00
289.07	3395.00
289.54	3557.00
290.01	3440.00
290.48	3504.00
290.96	3458.00
291.43	3481.00
291.90	3602.00
292.38	3476.00
292.85	3538.00
293.32	3479.00
293.79	3507.00
294.27	3493.00
294.74	3460.00
295.21	3465.00
295.69	3520.00
296.16	3506.00
296.63	3566.00
297.10	3483.00
297.58	3509.00
298.05	3536.00
298.52	3456.00
298.99	3567.00
299.47	3487.00
299.94	3488.00
300.41	3445.00
300.88	3552.00
301.36	3538.00
301.83	3495.00
302.30	3419.00
302.77	3520.00
303.25	3505.00
303.72	3447.00
304.19	3478.00
304.66	3449.00
305.13	3485.00
305.61	3534.00
306.08	3523.00
306.55	3522.00
307.02	3467.00
307.49	3443.00
307.97	3519.00
308.44	3483.00
308.91	3511.00
309.38	3578.00
309.86	3524.00
310.33	3535.00
310.80	3514.00
311.27	3469.00
311.74	3526.00
312.21	3491.00
312.69	3587.00
313.16	3490.00
313.63	3456.00
314.10	3525.00
314.57	3481.00
315.05	3465.00
315.52	3545.00
315.99	3551.00
316.46	3532.00
316.93	3514.00
317.40	3496.00
317.88	3627.00
318.35	3505.00
318.82	3517.00
319.29	3479.00
319.76	3562.00
320.23	3600.00
320.70	3571.00
321.18	3481.00
321.65	3426.00
322.12	3493.00
322.59	3571.00
323.06	3477.00
323.53	3634.00
324.00	3506.00
324.48	3529.00
324.95	3506.00
325.42	3525.00
325.89	3483.00
326.36	3522.00
326.83	3543.00
327.30	3555.00
327.77	3560.00
328.24	3554.00
328.72	3495.00
329.19	3501.00
329.66	3504.00
330.13	3488.00
330.60	3562.00
331.07	3552.00
331.54	3650.00
332.01	3475.00
332.48	3591.00
332.95	3552.00
333.43	3537.00
333.90	3617.00
334.37	3547.00
334.84	3512.00
335.31	3675.00
335.78	3489.00
336.25	3548.00
336.72	3493.00
337.19	3544.00
337.66	3526.00
338.13	3519.00
338.60	3612.00
339.07	3541.00
339.54	3481.00
340.01	3507.00
340.49	3475.00
340.96	3538.00
341.43	3590.00
341.90	3509.00
342.37	3529.00
342.84	3531.00
343.31	3486.00
343.78	3508.00
344.25	3506.00
344.72	3515.00
345.19	3526.00
345.66	3571.00
346.13	3535.00
346.60	3435.00
347.07	3559.00
347.54	3485.00
348.01	3560.00
348.48	3523.00
348.95	3456.00
349.42	3523.00
349.89	3544.00
350.36	3548.00
350.83	3457.00
351.30	3538.00
351.77	3626.00
352.24	3563.00
352.71	3541.00
353.18	3507.00
353.65	3553.00
354.12	3515.00
354.59	3585.00
355.06	3577.00
355.53	3590.00
356.00	3483.00
356.47	3592.00
356.94	3466.00
357.41	3624.00
357.88	3537.00
358.35	3495.00
358.82	3494.00
359.28	3473.00
359.75	3541.00
360.22	3601.00
360.69	3595.00
361.16	3497.00
361.63	3537.00
362.10	3539.00
362.57	3557.00
363.04	3513.00
363.51	3609.00
363.98	3544.00
364.45	3496.00
364.92	3550.00
365.39	3533.00
365.86	3499.00
366.32	3521.00
366.79	3493.00
367.26	4455.00
367.73	3849.00
368.20	3512.00
368.67	3563.00
369.14	3482.00
369.61	3543.00
370.08	3528.00
370.55	3550.00
371.02	4355.00
371.48	3543.00
371.95	3539.00
372.42	3480.00
372.89	3564.00
373.36	3547.00
373.83	3471.00
374.30	3515.00
374.77	3531.00
375.23	3482.00
375.70	3593.00
376.17	3537.00
376.64	3475.00
377.11	3495.00
377.58	3519.00
378.05	3569.00
378.51	3550.00
378.98	3520.00
379.45	3519.00
379.92	3591.00
380.39	3667.00
380.86	3527.00
381.33	3589.00
381.79	3561.00
382.26	3463.00
382.73	3545.00
383.20	3526.00
383.67	3581.00
384.14	3567.00
384.60	3722.00
385.07	3543.00
385.54	3494.00
386.01	3523.00
386.48	3615.00
386.94	3501.00
387.41	3442.00
387.88	3581.00
388.35	3539.00
388.82	3576.00
389.28	3520.00
389.75	3580.00
390.22	3533.00
390.69	3572.00
391.16	3509.00
391.62	3522.00
392.09	3527.00
392.56	3508.00
393.03	3528.00
393.50	3655.00
393.96	3519.00
394.43	3604.00
394.90	3496.00
395.37	3584.00
395.83	3770.00
396.30	3448.00
396.77	3529.00
397.24	3535.00
397.70	3483.00
398.17	3509.00
398.64	3503.00
399.11	3525.00
399.57	3575.00
400.04	3483.00
400.51	3518.00
400.98	3517.00
401.44	3595.00
401.91	3551.00
402.38	3521.00
402.84	3506.00
403.31	3617.00
403.78	3537.00
404.25	3613.00
404.71	3613.00
405.18	3606.00
405.65	3460.00
406.12	3575.00
406.58	3550.00
407.05	3620.00
407.52	3550.00
407.98	4078.00
408.45	3559.00
408.92	3544.00
409.38	3565.00
409.85	3520.00
410.32	3578.00
410.78	3533.00
411.25	3653.00
411.72	3572.00
412.18	3506.00
412.65	3583.00
413.12	3526.00
413.59	3587.00
414.05	3628.00
414.52	3657.00
414.98	3561.00
415.45	3690.00
415.92	3609.00
416.38	3592.00
416.85	3645.00
417.32	3576.00
417.78	3587.00
418.25	3580.00
418.72	3582.00
419.18	3651.00
419.65	3543.00
420.12	3621.00
420.58	3565.00
421.05	3570.00
421.51	3580.00
421.98	3648.00
422.45	3576.00
422.91	3639.00
423.38	3631.00
423.85	3645.00
424.31	3637.00
424.78	3627.00
425.24	3593.00
425.71	3709.00
426.18	3630.00
426.64	3680.00
427.11	3635.00
427.57	3673.00
428.04	3593.00
428.51	3670.00
428.97	3673.00
429.44	3629.00
429.90	3671.00
430.37	3779.00
430.83	3585.00
431.30	3593.00
431.77	3739.00
432.23	3714.00
432.70	3704.00
433.16	3593.00
433.63	3664.00
434.09	3652.00
434.56	3707.00
435.03	3688.00
435.49	3732.00
435.96	3720.00
436.42	3654.00
436.89	3723.00
437.35	3717.00
437.82	3708.00
438.28	3619.00
438.75	3705.00
439.21	3881.00
439.68	3731.00
440.14	3701.00
440.61	3741.00
441.07	3675.00
441.54	3710.00
442.00	3840.00
442.47	3684.00
442.94	3703.00
443.40	3758.00
443.87	3685.00
444.33	3815.00
444.80	3763.00
445.26	3739.00
445.73	3763.00
446.19	3727.00
446.65	3752.00
447.12	3767.00
447.58	3696.00
448.05	3719.00
448.51	3781.00
448.98	3783.00
449.44	3777.00
449.91	3695.00
450.37	3719.00
450.84	3755.00
451.30	3779.00
451.77	3775.00
452.23	3742.00
452.70	3809.00
453.16	3755.00
453.62	3769.00
454.09	3820.00
454.55	3815.00
455.02	3739.00
455.48	3765.00
455.95	3782.00
456.41	3768.00
456.88	3859.00
457.34	3749.00
457.80	3786.00
458.27	3706.00
458.73	3731.00
459.20	3758.00
459.66	3774.00
460.13	3733.00
460.59	3708.00
461.05	3783.00
461.52	3784.00
461.98	3711.00
462.45	3689.00
462.91	3783.00
463.37	3700.00
463.84	3724.00
464.30	3690.00
464.76	3682.00
465.23	3661.00
465.69	3746.00
466.16	3728.00
466.62	3762.00
467.08	3647.00
467.55	3671.00
468.01	3687.00
468.48	3697.00
468.94	3705.00
469.40	3627.00
469.87	3677.00
470.33	3679.00
470.79	3648.00
471.26	3615.00
471.72	3617.00
472.18	3675.00
472.65	3637.00
473.11	3693.00
473.57	3664.00
474.04	3669.00
474.50	3697.00
474.96	3597.00
475.43	3671.00
475.89	3659.00
476.35	3686.00
476.82	3629.00
477.28	3665.00
477.74	3698.00
478.21	3683.00
478.67	3714.00
479.13	3613.00
479.59	3772.00
480.06	3722.00
480.52	3645.00
480.98	3611.00
481.45	3683.00
481.91	3658.00
482.37	3599.00
482.84	3690.00
483.30	3592.00
483.76	3620.00
484.22	3699.00
484.69	3668.00
485.15	3606.00
485.61	3521.00
486.07	3602.00
486.54	3576.00
487.00	3643.00
487.46	3546.00
487.92	3557.00
488.39	3610.00
488.85	3647.00
489.31	3692.00
489.77	3684.00
490.24	3598.00
490.70	3639.00
491.16	3589.00
491.62	3605.00
492.09	3582.00
492.55	3732.00
493.01	3722.00
493.47	3697.00
493.94	3637.00
494.40	3668.00
494.86	3659.00
495.32	3677.00
495.78	3671.00
496.25	3679.00
496.71	3687.00
497.17	3784.00
497.63	3746.00
498.09	3669.00
498.56	3705.00
499.02	3703.00
499.48	3836.00
499.94	3723.00
500.40	3676.00
500.87	3674.00
501.33	3735.00
501.79	3786.00
502.25	3824.00
502.71	4046.00
503.17	3798.00
503.64	3758.00
504.10	3763.00
504.56	3834.00
505.02	3787.00
505.48	3816.00
505.94	3854.00
506.40	3925.00
506.87	3855.00
507.33	3857.00
507.79	3865.00
508.25	3862.00
508.71	3876.00
509.17	3895.00
509.63	3960.00
510.10	3974.00
510.56	3939.00
511.02	4085.00
511.48	4134.00
511.94	4044.00
512.40	3997.00
512.86	4075.00
513.32	4137.00
513.78	4011.00
514.25	4141.00
514.71	4850.00
515.17	4144.00
515.63	4243.00
516.09	4235.00
516.55	4192.00
517.01	4296.00
517.47	4227.00
517.93	4227.00
518.39	4433.00
518.85	4389.00
519.32	4411.00
519.78	4439.00
520.24	4457.00
520.70	4594.00
521.16	4617.00
521.62	4661.00
522.08	4707.00
522.54	4703.00
523.00	4755.00
523.46	4869.00
523.92	4887.00
524.38	5047.00
524.84	4898.00
525.30	5041.00
525.76	4981.00
526.22	4838.00
526.68	4881.00
527.14	4967.00
527.60	5026.00
528.06	5131.00
528.52	5148.00
528.98	5161.00
529.44	5162.00
529.90	5247.00
530.36	5296.00
530.82	5275.00
531.28	5369.00
531.74	5333.00
532.20	5272.00
532.66	5293.00
533.12	5410.00
533.58	5327.00
534.04	5345.00
534.50	5398.00
534.96	5463.00
535.42	5572.00
535.88	5575.00
536.34	5506.00
536.80	5425.00
537.26	5535.00
537.72	5536.00
538.18	5537.00
538.64	5691.00
539.10	5565.00
539.56	5819.00
540.02	5447.00
540.48	5568.00
540.94	5544.00
541.40	5547.00
541.86	5643.00
542.32	5647.00
542.78	5603.00
543.24	5756.00
543.69	5691.00
544.15	5878.00
544.61	5663.00
545.07	5692.00
545.53	5703.00
545.99	5727.00
546.45	5743.00
546.91	5747.00
547.37	5700.00
547.83	5723.00
548.29	5745.00
548.74	5815.00
549.20	5745.00
549.66	5883.00
550.12	5820.00
550.58	5805.00
551.04	5817.00
551.50	5899.00
551.96	5964.00
552.42	5868.00
552.87	5799.00
553.33	5894.00
553.79	5802.00
554.25	5872.00
554.71	5921.00
555.17	5905.00
555.63	5969.00
556.08	5801.00
556.54	5741.00
557.00	5767.00
557.46	5848.00
557.92	5865.00
558.38	5729.00
558.83	5648.00
559.29	5645.00
559.75	5613.00
560.21	5665.00
560.67	5737.00
561.13	5697.00
561.58	5674.00
562.04	5619.00
562.50	5650.00
562.96	5640.00
563.42	5687.00
563.87	5616.00
564.33	5577.00
564.79	5552.00
565.25	5541.00
565.71	5544.00
566.16	5489.00
566.62	5501.00
567.08	5512.00
567.54	5483.00
568.00	5502.00
568.45	5388.00
568.91	5392.00
569.37	5413.00
569.83	5302.00
570.28	5300.00
570.74	5274.00
571.20	5298.00
571.66	5248.00
572.11	5298.00
572.57	5261.00
573.03	5313.00
573.49	5110.00
573.94	5209.00
574.40	5236.00
574.86	5139.00
575.32	5043.00
575.77	5103.00
576.23	4973.00
576.69	5137.00
577.15	4979.00
577.60	4984.00
578.06	4967.00
578.52	5038.00
578.97	4987.00
579.43	4974.00
579.89	5051.00
580.34	4947.00
580.80	4921.00
581.26	4895.00
581.72	4905.00
582.17	4965.00
582.63	4867.00
583.09	4901.00
583.54	4935.00
584.00	4913.00
584.46	4929.00
584.91	4829.00
585.37	4948.00
585.83	4781.00
586.28	4788.00
586.74	4834.00
587.20	4782.00
587.65	4881.00
588.11	4687.00
588.57	4688.00
589.02	4586.00
589.48	4581.00
589.94	4631.00
590.39	4673.00
590.85	4679.00
591.30	4699.00
591.76	4738.00
592.22	4623.00
592.67	4672.00
593.13	4707.00
593.59	4709.00
594.04	4670.00
594.50	4601.00
594.95	4657.00
595.41	4587.00
595.87	4640.00
596.32	4719.00
596.78	4671.00
597.23	4689.00
597.69	4686.00
598.15	4573.00
598.60	4623.00
599.06	4661.00
599.51	4611.00
599.97	4650.00
600.43	4641.00
600.88	4525.00
601.34	4648.00
601.79	4549.00
602.25	4721.00
602.70	4607.00
603.16	4670.00
603.61	4637.00
604.07	4551.00
604.53	4631.00
604.98	4530.00
605.44	4578.00
605.89	4572.00
606.35	4499.00
606.80	4516.00
607.26	4516.00
607.71	4537.00
608.17	4489.00
608.62	4466.00
609.08	4594.00
609.53	4534.00
609.99	4439.00
610.44	4435.00
610.90	4456.00
611.35	4379.00
611.81	4543.00
612.26	4407.00
612.72	4373.00
613.17	4551.00
613.63	4322.00
614.08	4315.00
614.54	4334.00
614.99	4304.00
615.45	4286.00
615.90	4286.00
616.36	4232.00
616.81	4271.00
617.27	4329.00
617.72	4341.00
618.18	4317.00
618.63	4286.00
619.09	4306.00
619.54	4331.00
619.99	4321.00
620.45	4311.00
620.90	4317.00
621.36	4224.00
621.81	4271.00
622.27	4311.00
622.72	4305.00
623.18	4201.00
623.63	4189.00
624.08	4302.00
624.54	4203.00
624.99	4181.00
625.45	4245.00
625.90	4216.00
626.35	4231.00
626.81	4161.00
627.26	4177.00
627.72	4206.00
628.17	4225.00
628.62	4103.00
629.08	4170.00
629.53	4236.00
629.99	4145.00
630.44	4167.00
630.89	4201.00
631.35	4215.00
631.80	4165.00
632.26	4221.00
632.71	4135.00
633.16	4162.00
633.62	4117.00
634.07	4139.00
634.52	4157.00
634.98	4157.00
635.43	4165.00
635.88	4065.00
636.34	4145.00
636.79	4123.00
637.24	4137.00
637.70	4167.00
638.15	4154.00
638.60	4104.00
639.06	4121.00
639.51	4024.00
639.96	4013.00
640.42	4090.00
640.87	4086.00
641.32	3963.00
641.78	3976.00
642.23	4021.00
642.68	3958.00
643.14	3974.00
643.59	4039.00
644.04	3997.00
644.49	3906.00
644.95	3950.00
645.40	3919.00
645.85	3968.00
646.31	3887.00
646.76	3943.00
647.21	3921.00
647.66	3905.00
648.12	3856.00
648.57	3836.00
649.02	3894.00
649.47	3848.00
649.93	4018.00
650.38	3780.00
650.83	3856.00
651.28	3817.00
651.74	3846.00
652.19	3818.00
652.64	3851.00
653.09	3810.00
653.55	3814.00
654.00	3835.00
654.45	3800.00
654.90	3815.00
655.35	3700.00
655.81	3770.00
656.26	3641.00
656.71	3677.00
657.16	3783.00
657.62	3793.00
658.07	3726.00
658.52	3727.00
658.97	3698.00
659.42	3906.00
659.88	3721.00
660.33	3762.00
660.78	3735.00
661.23	3664.00
661.68	3696.00
662.13	3649.00
662.59	3604.00
663.04	3720.00
663.49	3651.00
663.94	3649.00
664.39	3615.00
664.84	3598.00
665.30	3629.00
665.75	3591.00
666.20	3650.00
666.65	3651.00
667.10	3727.00
667.55	3695.00
668.00	3563.00
668.46	3621.00
668.91	3591.00
669.36	3677.00
669.81	3504.00
670.26	3535.00
670.71	3643.00
671.16	3604.00
671.61	3602.00
672.06	3706.00
672.52	3565.00
672.97	3579.00
673.42	3623.00
673.87	3731.00
674.32	3569.00
674.77	3595.00
675.22	3544.00
675.67	3505.00
676.12	3536.00
676.57	3537.00
677.02	3582.00
677.47	3565.00
677.93	3678.00
678.38	3536.00
678.83	3535.00
679.28	3596.00
679.73	3573.00
680.18	3572.00
680.63	3582.00
681.08	3474.00
681.53	3496.00
681.98	3531.00
682.43	3557.00
682.88	3601.00
683.33	3566.00
683.78	3589.00
684.23	3657.00
684.68	3635.00
685.13	3663.00
685.58	3653.00
686.03	3655.00
686.48	3552.00
686.93	3549.00
687.38	3571.00
687.83	3621.00
688.28	3669.00
688.73	3818.00
689.18	3749.00
689.63	3691.00
690.08	3820.00
690.53	3817.00
690.98	3757.00
691.43	3927.00
691.88	3880.00
692.33	3953.00
692.78	4006.00
693.23	4099.00
693.68	4114.00
694.13	4156.00
694.58	4252.00
695.03	4469.00
695.48	4344.00
695.93	4437.00
696.38	4591.00
696.83	4544.00
697.28	4676.00
697.72	4650.00
698.17	4725.00
698.62	4844.00
699.07	4908.00
699.52	4902.00
699.97	5002.00
700.42	5106.00
700.87	5203.00
701.32	5346.00
701.77	5173.00
702.22	5338.00
702.67	5353.00
703.11	5494.00
703.56	5594.00
704.01	5682.00
704.46	5775.00
704.91	5928.00
705.36	5896.00
705.81	6016.00
706.26	5948.00
706.70	6124.00
707.15	6159.00
707.60	6188.00
708.05	6302.00
708.50	6433.00
708.95	6461.00
709.40	6493.00
709.84	6576.00
710.29	6649.00
710.74	6624.00
711.19	6733.00
711.64	6854.00
712.09	6875.00
712.53	6860.00
712.98	7053.00
713.43	7043.00
713.88	7033.00
714.33	7187.00
714.78	7162.00
715.22	7090.00
715.67	7198.00
716.12	7160.00
716.57	6961.00
717.02	6741.00
717.46	6675.00
717.91	6729.00
718.36	6637.00
718.81	6468.00
719.26	6567.00
719.70	6651.00
720.15	6692.00
720.60	6892.00
721.05	7361.00
721.49	7463.00
721.94	7702.00
722.39	7666.00
722.84	7457.00
723.28	7306.00
723.73	7309.00
724.18	7205.00
724.63	7466.00
725.07	7382.00
725.52	7470.00
725.97	7621.00
726.42	7717.00
726.86	7843.00
727.31	7723.00
727.76	7744.00
728.21	7877.00
728.65	7844.00
729.10	7905.00
729.55	7979.00
729.99	8033.00
730.44	8098.00
730.89	8203.00
731.33	8308.00
731.78	8522.00
732.23	8680.00
732.68	8737.00
733.12	8948.00
733.57	8982.00
734.02	9107.00
734.46	9184.00
734.91	9191.00
735.36	9206.00
735.80	9483.00
736.25	9165.00
736.70	9413.00
737.14	9536.00
737.59	9568.00
738.04	9549.00
738.48	9491.00
738.93	9469.00
739.37	9509.00
739.82	9752.00
740.27	9808.00
740.71	9682.00
741.16	9837.00
741.61	9862.00
742.05	9864.00
742.50	9881.00
742.94	9890.00
743.39	10067.00
743.84	9897.00
744.28	10079.00
744.73	10105.00
745.18	10190.00
745.62	10273.00
746.07	10254.00
746.51	10101.00
746.96	10215.00
747.40	10093.00
747.85	10121.00
748.30	10153.00
748.74	10122.00
749.19	10183.00
749.63	10231.00
750.08	10231.00
750.52	10191.00
750.97	10001.00
751.42	10152.00
751.86	10156.00
752.31	10040.00
752.75	10144.00
753.20	10116.00
753.64	10109.00
754.09	10005.00
754.53	10224.00
754.98	10178.00
755.42	10262.00
755.87	10198.00
756.31	10280.00
756.76	10057.00
757.20	9991.00
757.65	9967.00
758.09	9769.00
758.54	9619.00
758.98	8762.00
759.43	7382.00
759.87	5974.00
760.32	5245.00
760.76	5125.00
761.21	5728.00
761.65	6477.00
762.10	6661.00
762.54	6359.00
762.99	6151.00
763.43	6277.00
763.88	6521.00
764.32	6859.00
764.77	7255.00
765.21	7625.00
765.66	8013.00
766.10	8237.00
766.54	8568.00
766.99	8927.00
767.43	9115.00
767.88	9448.00
768.32	9559.00
768.77	9528.00
769.21	9777.00
769.66	9745.00
770.10	9791.00
770.54	9988.00
770.99	9895.00
771.43	9969.00
771.88	9989.00
772.32	9966.00
772.76	9974.00
773.21	9941.00
773.65	9873.00
774.10	9776.00
774.54	9839.00
774.98	9841.00
775.43	9971.00
775.87	10017.00
776.31	10017.00
776.76	9967.00
777.20	9952.00
777.65	9950.00
778.09	9970.00
778.53	9949.00
778.98	9825.00
779.42	9904.00
779.86	9878.00
780.31	9878.00
780.75	9952.00
781.19	9908.00
781.64	9924.00
782.08	9940.00
782.52	9860.00
782.97	9777.00
783.41	9767.00
783.85	9754.00
784.30	9624.00
784.74	9707.00
785.18	9611.00
785.63	9586.00
786.07	9648.00
786.51	9671.00
786.95	9723.00
787.40	9575.00
787.84	9583.00
788.28	9553.00
788.73	9571.00
789.17	9317.00
789.61	9331.00
790.05	9298.00
790.50	9197.00
790.94	9181.00
791.38	9295.00
791.82	9255.00
792.27	9258.00
792.71	9251.00
793.15	9521.00
793.59	9325.00
794.04	9248.00
794.48	9267.00
794.92	9170.00
795.36	9030.00
795.81	9117.00
796.25	8990.00
796.69	9048.00
797.13	9059.00
797.57	9187.00
798.02	9255.00
798.46	9264.00
798.90	9193.00
799.34	9127.00
799.79	9142.00
800.23	9014.00
800.67	8903.00
801.11	8832.00
801.55	8909.00
801.99	8769.00
802.44	8918.00
802.88	8947.00
803.32	8992.00
803.76	8867.00
804.20	9023.00
804.64	8945.00
805.09	9104.00
805.53	9055.00
805.97	9058.00
806.41	8962.00
806.85	8876.00
807.29	8764.00
807.74	8748.00
808.18	8602.00
808.62	8651.00
809.06	8732.00
809.50	8667.00
809.94	8681.00
810.38	8745.00
810.82	8683.00
811.27	8871.00
811.71	8515.00
812.15	8399.00
812.59	8313.00
813.03	8172.00
813.47	7877.00
813.91	7731.00
814.35	7703.00
814.79	7617.00
815.23	7569.00
815.67	7469.00
816.12	7595.00
816.56	7551.00
817.00	7488.00
817.44	7571.00
817.88	7629.00
818.32	7590.00
818.76	7557.00
819.20	7582.00
819.64	7627.00
820.08	7744.00
820.52	7757.00
820.96	7872.00
821.40	7723.00
821.84	7718.00
822.28	7277.00
822.72	7279.00
823.16	7371.00
823.60	7483.00
824.04	7856.00
824.48	7985.00
824.92	7987.00
825.36	8034.00
825.80	7864.00
826.24	7851.00
826.68	7721.00
827.12	7810.00
827.56	7675.00
828.00	7697.00
828.44	7733.00
828.88	7861.00
829.32	7843.00
829.76	7821.00
830.20	7995.00
830.64	7823.00
831.08	8003.00
831.52	7694.00
831.96	7777.00
832.40	7626.00
832.84	7717.00
833.28	7641.00
833.72	7804.00
834.16	7898.00
834.60	8084.00
835.04	8155.00
835.48	8291.00
835.91	8167.00
836.35	8185.00
836.79	8191.00
837.23	8107.00
837.67	7895.00
838.11	8021.00
838.55	8079.00
838.99	8060.00
839.43	8228.00
839.87	8172.00
840.30	8216.00
840.74	8276.00
841.18	8206.00
841.62	8302.00
842.06	8345.00
842.50	8303.00
842.94	8324.00
843.38	8162.00
843.81	8093.00
844.25	8049.00
844.69	7977.00
845.13	8073.00
845.57	8056.00
846.01	8169.00
846.45	8037.00
846.88	8198.00
847.32	8257.00
847.76	8269.00
848.20	8245.00
848.64	8286.00
849.08	8139.00
849.51	8181.00
849.95	8027.00
850.39	7958.00
850.83	8134.00
851.27	8040.00
851.70	7929.00
852.14	7965.00
852.58	7786.00
853.02	7697.00
853.46	7545.00
853.89	7483.00
854.33	7459.00
854.77	7666.00
855.21	8057.00
855.65	8241.00
856.08	8311.00
856.52	8265.00
856.96	8247.00
857.40	8187.00
857.83	7958.00
858.27	7917.00
858.71	7847.00
859.15	7743.00
859.58	7841.00
860.02	7933.00
860.46	8021.00
860.89	8145.00
861.33	8120.00
861.77	8205.00
862.21	8327.00
862.64	8231.00
863.08	8199.00
863.52	8235.00
863.95	8035.00
864.39	7984.00
864.83	7816.00
865.27	7482.00
865.70	7569.00
866.14	7318.00
866.58	7426.00
867.01	7643.00
867.45	7857.00
867.89	7975.00
868.32	7979.00
868.76	8185.00
869.20	8069.00
869.63	8171.00
870.07	8200.00
870.51	7914.00
870.94	7788.00
871.38	7735.00
871.82	7671.00
872.25	7621.00
872.69	7665.00
873.13	7605.00
873.56	7697.00
874.00	7731.00
874.43	7832.00
874.87	7914.00
875.31	7991.00
875.74	7975.00
876.18	8073.00
876.61	8013.00
877.05	7914.00
877.49	7815.00
877.92	7749.00
878.36	7775.00
878.79	7603.00
879.23	7589.00
879.67	7466.00
880.10	7450.00
880.54	7493.00
880.97	7521.00
881.41	7646.00
881.84	7769.00
882.28	7823.00
882.72	7958.00
883.15	7985.00
883.59	7975.00
884.02	8037.00
884.46	7939.00
884.89	7864.00
885.33	7732.00
885.76	7580.00
886.20	7492.00
886.63	7533.00
887.07	7305.00
887.50	7433.00
887.94	7400.00
888.37	7493.00
888.81	7706.00
889.24	7535.00
889.68	7657.00
890.11	7721.00
890.55	7793.00
890.98	7778.00
891.42	7804.00
891.85	7787.00
892.29	7687.00
892.72	7504.00
893.16	7378.00
893.59	7289.00
894.03	7098.00
894.46	6995.00
894.90	6853.00
895.33	6590.00
895.77	6569.00
896.20	6642.00
896.63	6570.00
897.07	6687.00
897.50	6535.00
897.94	6663.00
898.37	6914.00
898.81	6498.00
899.24	6445.00
899.68	6650.00
900.11	6654.00
900.54	6477.00
900.98	6526.00
901.41	6485.00
901.85	6586.00
902.28	6480.00
902.71	6544.00
903.15	6759.00
903.58	6814.00
904.02	6830.00
904.45	6840.00
904.88	6823.00
905.32	6715.00
905.75	6763.00
906.18	6599.00
906.62	6677.00
907.05	6605.00
907.48	6521.00
907.92	6512.00
908.35	6510.00
908.79	6350.00
909.22	6295.00
909.65	6376.00
910.09	6357.00
910.52	6439.00
910.95	6309.00
911.38	6313.00
911.82	6122.00
912.25	6299.00
912.68	6406.00
913.12	6368.00
913.55	6378.00
913.98	6397.00
914.42	6550.00
914.85	6613.00
915.28	6385.00
915.72	6385.00
916.15	6360.00
916.58	6441.00
917.01	6289.00
917.45	6222.00
917.88	6205.00
918.31	6331.00
918.74	6533.00
919.18	6597.00
919.61	6574.00
920.04	6639.00
920.47	6710.00
920.91	6713.00
921.34	6633.00
921.77	6635.00
922.20	6745.00
922.64	6776.00
923.07	6769.00
923.50	6645.00
923.93	6547.00
924.37	6555.00
924.80	6483.00
925.23	6480.00
925.66	6404.00
926.09	6091.00
926.53	6093.00
926.96	5886.00
927.39	5900.00
927.82	5579.00
928.25	5465.00
928.69	5433.00
929.12	5381.00
929.55	5313.00
929.98	5169.00
930.41	4995.00
930.84	4889.00
931.28	4720.00
931.71	4593.00
932.14	4401.00
932.57	4467.00
933.00	4260.00
933.43	4281.00
933.86	4189.00
934.30	4095.00
934.73	4237.00
935.16	4119.00
935.59	4063.00
936.02	4156.00
936.45	4133.00
936.88	4098.00
937.31	4253.00
937.75	4316.00
938.18	4357.00
938.61	4497.00
939.04	4529.00
939.47	4507.00
939.90	4441.00
940.33	4441.00
940.76	4284.00
941.19	4254.00
941.62	4121.00
942.05	4119.00
942.48	4067.00
942.91	3944.00
943.35	4058.00
943.78	4033.00
944.21	3995.00
944.64	4125.00
945.07	4153.00
945.50	4093.00
945.93	4147.00
946.36	4293.00
946.79	4275.00
947.22	4306.00
947.65	4295.00
948.08	4112.00
948.51	4234.00
948.94	4324.00
949.37	4395.00
949.80	4271.00
950.23	4259.00
950.66	4278.00
951.09	4280.00
951.52	4202.00
951.95	4245.00
952.38	4230.00
952.81	4411.00
953.24	4379.00
953.67	4500.00
954.10	4406.00
954.53	4495.00
954.96	4475.00
955.39	4589.00
955.82	4626.00
956.25	4631.00
956.68	4763.00
957.11	4629.00
957.53	4635.00
957.96	4599.00
958.39	4545.00
958.82	4474.00
959.25	4531.00
959.68	4586.00
960.11	4680.00
960.54	4661.00
960.97	4846.00
961.40	4876.00
961.83	4883.00
962.26	4841.00
962.68	5059.00
963.11	5004.00
963.54	5052.00
963.97	5093.00
964.40	5061.00
964.83	5184.00
965.26	5177.00
965.69	5131.00
966.11	5145.00
966.54	5065.00
966.97	5258.00
967.40	5363.00
967.83	5433.00
968.26	5316.00
968.69	5312.00
969.11	5393.00
969.54	5303.00
969.97	5375.00
970.40	5423.00
970.83	5411.00
971.26	5395.00
971.68	5373.00
972.11	5352.00
972.54	5481.00
972.97	5524.00
973.40	5427.00
973.82	5417.00
974.25	5392.00
974.68	5360.00
975.11	5352.00
975.54	5228.00
975.96	5251.00
976.39	5183.00
976.82	5327.00
977.25	5211.00
977.67	5209.00
978.10	5254.00
978.53	5275.00
978.96	5354.00
979.38	5427.00
979.81	5393.00
980.24	5536.00
980.67	5590.00
981.09	5725.00
981.52	5671.00
981.95	5633.00
982.38	5663.00
982.80	5658.00
983.23	5753.00
983.66	5794.00
984.08	5669.00
984.51	5600.00
984.94	5591.00
985.37	5667.00
985.79	5525.00
986.22	5436.00
986.65	5475.00
987.07	5471.00
987.50	5505.00
987.93	5443.00
988.35	5504.00
988.78	5459.00
989.21	5500.00
989.63	5554.00
990.06	5608.00
990.49	5627.00
990.91	5733.00
991.34	5725.00
991.77	5659.00
992.19	5633.00
992.62	5621.00
993.05	5656.00
993.47	5725.00
993.90	5649.00
994.32	5656.00
994.75	5475.00
995.18	5500.00
995.60	5412.00
996.03	5385.00
996.45	5451.00
996.88	5413.00
997.31	5342.00
997.73	5364.00
998.16	5345.00
998.58	5439.00
999.01	5424.00
999.44	5463.00
999.86	5500.00
1000.29	5416.00
1000.71	5495.00
1001.14	5538.00
1001.56	5512.00
1001.99	5510.00
1002.41	5473.00
1002.84	5444.00
1003.27	5305.00
1003.69	5342.00
1004.12	5292.00
1004.54	5234.00
1004.97	5166.00
1005.39	5121.00
1005.82	5115.00
1006.24	5133.00
1006.67	5071.00
1007.09	5035.00
1007.52	5104.00
1007.94	5105.00
1008.37	5336.00
1008.79	5169.00
1009.22	5153.00
1009.64	5183.00
1010.07	5091.00
1010.49	5142.00
1010.92	5205.00
1011.34	5194.00
1011.77	5200.00
1012.19	5157.00
1012.62	5146.00
1013.04	5047.00
1013.46	5123.00
1013.89	4969.00
1014.31	5008.00
1014.74	4985.00
1015.16	4931.00
1015.59	4847.00
1016.01	4885.00
1016.44	4917.00
1016.86	5713.00
1017.28	4939.00
1017.71	4902.00
1018.13	5117.00
1018.56	5010.00
1018.98	5058.00
1019.40	4996.00
1019.83	5115.00
1020.25	5018.00
1020.68	5025.00
1021.10	5140.00
1021.52	5066.00
1021.95	5249.00
1022.37	5184.00
1022.79	5119.00
1023.22	5069.00
1023.64	5020.00
1024.07	5053.00
1024.49	5063.00
1024.91	4876.00
1025.34	4863.00
1025.76	5050.00
1026.18	4921.00
1026.61	4931.00
1027.03	4907.00
1027.45	4877.00
1027.88	4865.00
1028.30	5027.00
1028.72	4968.00
1029.15	4943.00
1029.57	4941.00
1029.99	5060.00
1030.41	4927.00
1030.84	4981.00
1031.26	4916.00
1031.68	4873.00
1032.11	4995.00
1032.53	4851.00
1032.95	4833.00
1033.37	4875.00
1033.80	4757.00
1034.22	4743.00
1034.64	4864.00
1035.06	4639.00
1035.49	4641.00
1035.91	4620.00
1036.33	4545.00
1036.75	4647.00
1037.18	4597.00
1037.60	4579.00
1038.02	4644.00
1038.44	4657.00
1038.87	4635.00
1039.29	4615.00
1039.71	4638.00
1040.13	4600.00
1040.55	4684.00
1040.98	4713.00
1041.40	4587.00
1041.82	4651.00
1042.24	4575.00
1042.66	4594.00
1043.09	4534.00
1043.51	4472.00
1043.93	4478.00
1044.35	4419.00
1044.77	4445.00
1045.20	4489.00
1045.62	4315.00
1046.04	4376.00
1046.46	4416.00
1046.88	4299.00
1047.30	4389.00
1047.72	4331.00
1048.15	4370.00
1048.57	4301.00
1048.99	4291.00
1049.41	4353.00
1049.83	4359.00
1050.25	4365.00
1050.67	4361.00
1051.09	4259.00
1051.52	4355.00
1051.94	4167.00
1052.36	4259.00
1052.78	4187.00
1053.20	4234.00
1053.62	4197.00
1054.04	4209.00
1054.46	4188.00
1054.88	4336.00
1055.30	4221.00
1055.72	4166.00
1056.14	4163.00
1056.57	4272.00
1056.99	4048.00
1057.41	4094.00
1057.83	4093.00
1058.25	4021.00
1058.67	4061.00
1059.09	4029.00
1059.51	4064.00
1059.93	3983.00
1060.35	3963.00
1060.77	4036.00
1061.19	4048.00
1061.61	3965.00
1062.03	3972.00
1062.45	3915.00
1062.87	4048.00
1063.29	4026.00
1063.71	3981.00
1064.13	3960.00
1064.55	3929.00
1064.97	4025.00
1065.39	3954.00
1065.81	3907.00
1066.23	3931.00
1066.65	3885.00
1067.07	3998.00
1067.49	3885.00
1067.91	3845.00
1068.33	3805.00
1068.75	3862.00
1069.17	3919.00
1069.59	3901.00
1070.00	3791.00
1070.42	3860.00
1070.84	3797.00
1071.26	3744.00
1071.68	3770.00
1072.10	3835.00
1072.52	3780.00
1072.94	3747.00
1073.36	3757.00
1073.78	3707.00
1074.20	3803.00
1074.62	3754.00
1075.03	3733.00
1075.45	3788.00
1075.87	3804.00
1076.29	3735.00
1076.71	3788.00
1077.13	3801.00
1077.55	3669.00
1077.97	3731.00
1078.38	3709.00
1078.80	3669.00
1079.22	3767.00
1079.64	3691.00
1080.06	3667.00
1080.48	3687.00
1080.89	3680.00
1081.31	3691.00
1081.73	3685.00
1082.15	3635.00
1082.57	3662.00
1082.99	3660.00
1083.40	3615.00
1083.82	3699.00
1084.24	3620.00
1084.66	3611.00
1085.08	3651.00
1085.49	3540.00
1085.91	3683.00
1086.33	4861.00
1086.75	3615.00
1087.17	3591.00
1087.58	3577.00
1088.00	3604.00
1088.42	3673.00
1088.84	3577.00
1089.25	3551.00
1089.67	3552.00
1090.09	3593.00
1090.51	3536.00
1090.92	3617.00
1091.34	3541.00
1091.76	3578.00
1092.18	3525.00
1092.59	3523.00
1093.01	3509.00
1093.43	3530.00
1093.84	3465.00
1094.26	3534.00
1094.68	3515.00
1095.10	3432.00
1095.51	3471.00
1095.93	3470.00
1096.35	3498.00
1096.76	3494.00
1097.18	3481.00
1097.60	3435.00
1098.01	3490.00
1098.43	3415.00
1098.85	3460.00
1099.26	3413.00
1099.68	3485.00
1100.10	3417.00
1100.51	3410.00
1100.93	3384.00
1101.35	3403.00
1101.76	3434.00
1102.18	3903.00
1102.60	3477.00
1103.01	3353.00
1103.43	3417.00
1103.84	3384.00
1104.26	3382.00
1104.68	3419.00
1105.09	3308.00
1105.51	3365.00
1105.92	3435.00
1106.34	3303.00
1106.76	3365.00
1107.17	3354.00
1107.59	3370.00
1108.00	3319.00
1108.42	3326.00
1108.83	3293.00
1109.25	3311.00
1109.67	3314.00
1110.08	3293.00
1110.50	3261.00
1110.91	3310.00
1111.33	3291.00
1111.74	3262.00
1112.16	3287.00
1112.57	3314.00
1112.99	3221.00
1113.41	3263.00
1113.82	3226.00
1114.24	3260.00
1114.65	3295.00
1115.07	3126.00
1115.48	3113.00
1115.90	2190.00
1116.31	2207.00
1116.73	2209.00
1117.14	2208.00
>>>>>End Processed Spectral Data<<<<<
