SpectraSuite Data File
++++++++++++++++++++++++++++++++++++
Date: Tue May 29 12:59:33 EEST 2018
User: CanSEE
Dark Spectrum Present: No
Reference Spectrum Present: No
Number of Sampled Component Spectra: 1
Spectrometers: MAYP11278
Integration Time (usec): 250000 (MAYP11278)
Spectra Averaged: 1 (MAYP11278)
Boxcar Smoothing: 0 (MAYP11278)
Correct for Electrical Dark: No (MAYP11278)
Strobe/Lamp Enabled: No (MAYP11278)
Correct for Detector Non-linearity: No (MAYP11278)
Correct for Stray Light: No (MAYP11278)
Number of Pixels in Processed Spectrum: 2068
>>>>>Begin Processed Spectral Data<<<<<
187.82	2317.00
188.30	2221.00
188.78	2200.00
189.26	2193.00
189.73	2995.00
190.21	3090.00
190.69	3141.00
191.17	3159.00
191.64	3218.00
192.12	3121.00
192.60	3095.00
193.07	3122.00
193.55	3126.00
194.03	3145.00
194.51	3175.00
194.98	3115.00
195.46	3184.00
195.94	3157.00
196.42	3141.00
196.89	3231.00
197.37	3154.00
197.85	3157.00
198.32	3119.00
198.80	3134.00
199.28	3176.00
199.76	3177.00
200.23	3157.00
200.71	3189.00
201.19	3201.00
201.66	3184.00
202.14	3169.00
202.62	3151.00
203.09	3180.00
203.57	3127.00
204.05	3180.00
204.53	3208.00
205.00	3142.00
205.48	3176.00
205.96	3210.00
206.43	3160.00
206.91	3191.00
207.39	3256.00
207.86	3162.00
208.34	3166.00
208.82	3173.00
209.29	3170.00
209.77	3164.00
210.25	3209.00
210.72	3162.00
211.20	3184.00
211.68	3166.00
212.15	3134.00
212.63	3231.00
213.11	3178.00
213.58	3146.00
214.06	3235.00
214.53	3176.00
215.01	3223.00
215.49	3202.00
215.96	3210.00
216.44	3191.00
216.92	3215.00
217.39	3172.00
217.87	3161.00
218.35	3216.00
218.82	3114.00
219.30	3135.00
219.77	3143.00
220.25	3162.00
220.73	3266.00
221.20	3157.00
221.68	3236.00
222.15	3157.00
222.63	3220.00
223.11	3144.00
223.58	3221.00
224.06	3169.00
224.53	3185.00
225.01	3151.00
225.49	3132.00
225.96	3166.00
226.44	3191.00
226.91	3203.00
227.39	3154.00
227.87	3188.00
228.34	3187.00
228.82	3187.00
229.29	3173.00
229.77	3165.00
230.24	3201.00
230.72	3192.00
231.20	3192.00
231.67	3195.00
232.15	3157.00
232.62	3117.00
233.10	3176.00
233.57	3181.00
234.05	3276.00
234.53	3207.00
235.00	3164.00
235.48	3168.00
235.95	3150.00
236.43	3184.00
236.90	3241.00
237.38	3181.00
237.85	3197.00
238.33	3150.00
238.80	3199.00
239.28	3169.00
239.75	3135.00
240.23	3237.00
240.71	3210.00
241.18	3210.00
241.66	3180.00
242.13	3229.00
242.61	3200.00
243.08	3116.00
243.56	3166.00
244.03	3214.00
244.51	3230.00
244.98	3170.00
245.46	3243.00
245.93	4607.00
246.41	3120.00
246.88	3183.00
247.36	3154.00
247.83	3194.00
248.31	3185.00
248.78	3110.00
249.26	3157.00
249.73	3187.00
250.21	3184.00
250.68	3239.00
251.16	3189.00
251.63	3252.00
252.10	3225.00
252.58	3158.00
253.05	3224.00
253.53	3145.00
254.00	3175.00
254.48	3206.00
254.95	3216.00
255.43	3183.00
255.90	3173.00
256.38	3245.00
256.85	3212.00
257.33	3201.00
257.80	3288.00
258.27	3215.00
258.75	3176.00
259.22	3191.00
259.70	3204.00
260.17	3237.00
260.65	3213.00
261.12	3189.00
261.59	3244.00
262.07	3174.00
262.54	3229.00
263.02	3205.00
263.49	3141.00
263.97	3233.00
264.44	3187.00
264.91	3186.00
265.39	3216.00
265.86	3219.00
266.34	3237.00
266.81	3174.00
267.28	3195.00
267.76	3226.00
268.23	3198.00
268.71	3145.00
269.18	3160.00
269.65	3161.00
270.13	3166.00
270.60	3221.00
271.08	3180.00
271.55	3178.00
272.02	3147.00
272.50	3183.00
272.97	3132.00
273.44	3200.00
273.92	3336.00
274.39	3193.00
274.87	3193.00
275.34	3147.00
275.81	3161.00
276.29	3178.00
276.76	3208.00
277.23	3060.00
277.71	3127.00
278.18	3079.00
278.65	3263.00
279.13	3080.00
279.60	3140.00
280.07	3411.00
280.55	3414.00
281.02	3465.00
281.50	3257.00
281.97	3339.00
282.44	3233.00
282.91	3242.00
283.39	3236.00
283.86	3187.00
284.33	3190.00
284.81	3239.00
285.28	3207.00
285.75	3202.00
286.23	3231.00
286.70	3182.00
287.17	3230.00
287.65	3257.00
288.12	3182.00
288.59	3208.00
289.07	3109.00
289.54	3237.00
290.01	3172.00
290.48	3167.00
290.96	3155.00
291.43	3219.00
291.90	3289.00
292.38	3158.00
292.85	3227.00
293.32	3154.00
293.79	3219.00
294.27	3221.00
294.74	3199.00
295.21	3249.00
295.69	3212.00
296.16	3306.00
296.63	3274.00
297.10	3221.00
297.58	3235.00
298.05	3255.00
298.52	3193.00
298.99	3264.00
299.47	3207.00
299.94	3213.00
300.41	3172.00
300.88	3232.00
301.36	3236.00
301.83	3250.00
302.30	3151.00
302.77	3240.00
303.25	3238.00
303.72	3196.00
304.19	3226.00
304.66	3133.00
305.13	3201.00
305.61	3229.00
306.08	3218.00
306.55	3247.00
307.02	3216.00
307.49	3217.00
307.97	3217.00
308.44	3199.00
308.91	3223.00
309.38	3256.00
309.86	3200.00
310.33	3246.00
310.80	3223.00
311.27	3196.00
311.74	3251.00
312.21	3205.00
312.69	3280.00
313.16	3223.00
313.63	3167.00
314.10	3223.00
314.57	3199.00
315.05	3186.00
315.52	3256.00
315.99	3275.00
316.46	3235.00
316.93	3251.00
317.40	3256.00
317.88	3349.00
318.35	3230.00
318.82	3226.00
319.29	3154.00
319.76	3239.00
320.23	3284.00
320.70	3262.00
321.18	3223.00
321.65	3137.00
322.12	3204.00
322.59	3299.00
323.06	3216.00
323.53	3318.00
324.00	3180.00
324.48	3253.00
324.95	3224.00
325.42	3201.00
325.89	3215.00
326.36	3260.00
326.83	3277.00
327.30	3256.00
327.77	3280.00
328.24	3237.00
328.72	3216.00
329.19	3242.00
329.66	3235.00
330.13	3193.00
330.60	3245.00
331.07	3245.00
331.54	3308.00
332.01	3194.00
332.48	3325.00
332.95	3272.00
333.43	3259.00
333.90	3289.00
334.37	3256.00
334.84	3257.00
335.31	3392.00
335.78	3212.00
336.25	3243.00
336.72	3242.00
337.19	3246.00
337.66	3206.00
338.13	3211.00
338.60	3287.00
339.07	3261.00
339.54	3207.00
340.01	3166.00
340.49	3206.00
340.96	3231.00
341.43	3302.00
341.90	3231.00
342.37	3258.00
342.84	3260.00
343.31	3253.00
343.78	3198.00
344.25	3256.00
344.72	3215.00
345.19	3228.00
345.66	3233.00
346.13	3201.00
346.60	3222.00
347.07	3286.00
347.54	3190.00
348.01	3280.00
348.48	3216.00
348.95	3197.00
349.42	3205.00
349.89	3261.00
350.36	3229.00
350.83	3249.00
351.30	3259.00
351.77	3310.00
352.24	3281.00
352.71	3203.00
353.18	3234.00
353.65	3245.00
354.12	3225.00
354.59	3237.00
355.06	3251.00
355.53	3321.00
356.00	3233.00
356.47	3327.00
356.94	3198.00
357.41	3353.00
357.88	3282.00
358.35	3217.00
358.82	3196.00
359.28	3231.00
359.75	3231.00
360.22	3290.00
360.69	3302.00
361.16	3220.00
361.63	3205.00
362.10	3254.00
362.57	3197.00
363.04	3255.00
363.51	3315.00
363.98	3271.00
364.45	3197.00
364.92	3243.00
365.39	3202.00
365.86	3209.00
366.32	3245.00
366.79	3200.00
367.26	3856.00
367.73	3236.00
368.20	3220.00
368.67	3261.00
369.14	3160.00
369.61	3261.00
370.08	3234.00
370.55	3214.00
371.02	3744.00
371.48	3221.00
371.95	3237.00
372.42	3202.00
372.89	3226.00
373.36	3252.00
373.83	3174.00
374.30	3182.00
374.77	3254.00
375.23	3195.00
375.70	3273.00
376.17	3223.00
376.64	3197.00
377.11	3200.00
377.58	3264.00
378.05	3230.00
378.51	3242.00
378.98	3232.00
379.45	3244.00
379.92	3260.00
380.39	3324.00
380.86	3233.00
381.33	3276.00
381.79	3264.00
382.26	3208.00
382.73	3284.00
383.20	3245.00
383.67	3286.00
384.14	3237.00
384.60	3431.00
385.07	3208.00
385.54	3219.00
386.01	3226.00
386.48	3319.00
386.94	3202.00
387.41	3210.00
387.88	3254.00
388.35	3259.00
388.82	3277.00
389.28	3246.00
389.75	3261.00
390.22	3249.00
390.69	3271.00
391.16	3263.00
391.62	3252.00
392.09	3261.00
392.56	3208.00
393.03	3252.00
393.50	3361.00
393.96	3264.00
394.43	3291.00
394.90	3221.00
395.37	3295.00
395.83	3435.00
396.30	3201.00
396.77	3269.00
397.24	3247.00
397.70	3233.00
398.17	3265.00
398.64	3236.00
399.11	3217.00
399.57	3307.00
400.04	3194.00
400.51	3268.00
400.98	3210.00
401.44	3309.00
401.91	3306.00
402.38	3327.00
402.84	3266.00
403.31	3336.00
403.78	3246.00
404.25	3331.00
404.71	3309.00
405.18	3314.00
405.65	3240.00
406.12	3280.00
406.58	3262.00
407.05	3375.00
407.52	3307.00
407.98	3894.00
408.45	3285.00
408.92	3284.00
409.38	3316.00
409.85	3241.00
410.32	3304.00
410.78	3259.00
411.25	3339.00
411.72	3273.00
412.18	3232.00
412.65	3319.00
413.12	3243.00
413.59	3323.00
414.05	3283.00
414.52	3355.00
414.98	3323.00
415.45	3388.00
415.92	3296.00
416.38	3290.00
416.85	3375.00
417.32	3316.00
417.78	3292.00
418.25	3292.00
418.72	3308.00
419.18	3336.00
419.65	3268.00
420.12	3337.00
420.58	3245.00
421.05	3301.00
421.51	3280.00
421.98	3312.00
422.45	3240.00
422.91	3304.00
423.38	3298.00
423.85	3339.00
424.31	3293.00
424.78	3327.00
425.24	3288.00
425.71	3348.00
426.18	3306.00
426.64	3344.00
427.11	3334.00
427.57	3306.00
428.04	3234.00
428.51	3344.00
428.97	3287.00
429.44	3312.00
429.90	3316.00
430.37	3362.00
430.83	3249.00
431.30	3268.00
431.77	3367.00
432.23	3329.00
432.70	3280.00
433.16	3281.00
433.63	3314.00
434.09	3254.00
434.56	3320.00
435.03	3259.00
435.49	3334.00
435.96	3291.00
436.42	3285.00
436.89	3331.00
437.35	3293.00
437.82	3315.00
438.28	3261.00
438.75	3299.00
439.21	3474.00
439.68	3338.00
440.14	3349.00
440.61	3366.00
441.07	3280.00
441.54	3291.00
442.00	3371.00
442.47	3290.00
442.94	3319.00
443.40	3297.00
443.87	3276.00
444.33	3349.00
444.80	3337.00
445.26	3313.00
445.73	3287.00
446.19	3351.00
446.65	3320.00
447.12	3353.00
447.58	3318.00
448.05	3305.00
448.51	3343.00
448.98	3355.00
449.44	3301.00
449.91	3290.00
450.37	3302.00
450.84	3329.00
451.30	3347.00
451.77	3358.00
452.23	3296.00
452.70	3391.00
453.16	3313.00
453.62	3338.00
454.09	3293.00
454.55	3337.00
455.02	3315.00
455.48	3347.00
455.95	3378.00
456.41	3332.00
456.88	3343.00
457.34	3327.00
457.80	3315.00
458.27	3274.00
458.73	3301.00
459.20	3299.00
459.66	3332.00
460.13	3295.00
460.59	3256.00
461.05	3316.00
461.52	3340.00
461.98	3234.00
462.45	3226.00
462.91	3284.00
463.37	3243.00
463.84	3282.00
464.30	3273.00
464.76	3228.00
465.23	3210.00
465.69	3319.00
466.16	3253.00
466.62	3252.00
467.08	3250.00
467.55	3224.00
468.01	3267.00
468.48	3260.00
468.94	3206.00
469.40	3193.00
469.87	3238.00
470.33	3238.00
470.79	3194.00
471.26	3154.00
471.72	3184.00
472.18	3190.00
472.65	3219.00
473.11	3230.00
473.57	3176.00
474.04	3154.00
474.50	3157.00
474.96	3165.00
475.43	3211.00
475.89	3203.00
476.35	3215.00
476.82	3190.00
477.28	3200.00
477.74	3263.00
478.21	3206.00
478.67	3229.00
479.13	3164.00
479.59	3267.00
480.06	3189.00
480.52	3200.00
480.98	3204.00
481.45	3187.00
481.91	3208.00
482.37	3145.00
482.84	3155.00
483.30	3154.00
483.76	3190.00
484.22	3221.00
484.69	3185.00
485.15	3154.00
485.61	3103.00
486.07	3172.00
486.54	3098.00
487.00	3178.00
487.46	3113.00
487.92	3130.00
488.39	3185.00
488.85	3198.00
489.31	3177.00
489.77	3206.00
490.24	3131.00
490.70	3193.00
491.16	3172.00
491.62	3126.00
492.09	3126.00
492.55	3204.00
493.01	3235.00
493.47	3146.00
493.94	3205.00
494.40	3173.00
494.86	3175.00
495.32	3188.00
495.78	3185.00
496.25	3178.00
496.71	3242.00
497.17	3296.00
497.63	3289.00
498.09	3219.00
498.56	3251.00
499.02	3235.00
499.48	3336.00
499.94	3259.00
500.40	3248.00
500.87	3270.00
501.33	3263.00
501.79	3277.00
502.25	3275.00
502.71	3534.00
503.17	3323.00
503.64	3326.00
504.10	3334.00
504.56	3347.00
505.02	3395.00
505.48	3369.00
505.94	3377.00
506.40	3424.00
506.87	3443.00
507.33	3440.00
507.79	3515.00
508.25	3450.00
508.71	3482.00
509.17	3499.00
509.63	3524.00
510.10	3544.00
510.56	3573.00
511.02	3622.00
511.48	3674.00
511.94	3633.00
512.40	3663.00
512.86	3671.00
513.32	3713.00
513.78	3651.00
514.25	3805.00
514.71	4304.00
515.17	3732.00
515.63	3875.00
516.09	3881.00
516.55	3821.00
517.01	3910.00
517.47	3919.00
517.93	3937.00
518.39	4139.00
518.85	4060.00
519.32	4109.00
519.78	4127.00
520.24	4167.00
520.70	4267.00
521.16	4313.00
521.62	4371.00
522.08	4343.00
522.54	4390.00
523.00	4522.00
523.46	4535.00
523.92	4556.00
524.38	4656.00
524.84	4619.00
525.30	4684.00
525.76	4729.00
526.22	4596.00
526.68	4610.00
527.14	4660.00
527.60	4764.00
528.06	4918.00
528.52	4913.00
528.98	4956.00
529.44	4910.00
529.90	4983.00
530.36	5045.00
530.82	5032.00
531.28	5097.00
531.74	5088.00
532.20	5035.00
532.66	5002.00
533.12	5075.00
533.58	5118.00
534.04	5109.00
534.50	5174.00
534.96	5166.00
535.42	5246.00
535.88	5246.00
536.34	5271.00
536.80	5186.00
537.26	5253.00
537.72	5289.00
538.18	5280.00
538.64	5318.00
539.10	5324.00
539.56	5430.00
540.02	5129.00
540.48	5234.00
540.94	5284.00
541.40	5250.00
541.86	5358.00
542.32	5305.00
542.78	5288.00
543.24	5425.00
543.69	5348.00
544.15	5402.00
544.61	5396.00
545.07	5357.00
545.53	5394.00
545.99	5362.00
546.45	5385.00
546.91	5393.00
547.37	5396.00
547.83	5366.00
548.29	5396.00
548.74	5414.00
549.20	5463.00
549.66	5553.00
550.12	5397.00
550.58	5423.00
551.04	5445.00
551.50	5356.00
551.96	5528.00
552.42	5518.00
552.87	5379.00
553.33	5443.00
553.79	5468.00
554.25	5464.00
554.71	5428.00
555.17	5543.00
555.63	5514.00
556.08	5378.00
556.54	5401.00
557.00	5270.00
557.46	5323.00
557.92	5423.00
558.38	5263.00
558.83	5205.00
559.29	5201.00
559.75	5198.00
560.21	5258.00
560.67	5269.00
561.13	5239.00
561.58	5130.00
562.04	5158.00
562.50	5187.00
562.96	5168.00
563.42	5195.00
563.87	5103.00
564.33	5118.00
564.79	5081.00
565.25	5038.00
565.71	4939.00
566.16	4994.00
566.62	5012.00
567.08	5000.00
567.54	4918.00
568.00	4932.00
568.45	4860.00
568.91	4817.00
569.37	4889.00
569.83	4789.00
570.28	4754.00
570.74	4748.00
571.20	4679.00
571.66	4677.00
572.11	4717.00
572.57	4644.00
573.03	4622.00
573.49	4630.00
573.94	4600.00
574.40	4632.00
574.86	4582.00
575.32	4494.00
575.77	4483.00
576.23	4459.00
576.69	4492.00
577.15	4498.00
577.60	4417.00
578.06	4369.00
578.52	4442.00
578.97	4343.00
579.43	4368.00
579.89	4397.00
580.34	4362.00
580.80	4341.00
581.26	4374.00
581.72	4365.00
582.17	4335.00
582.63	4297.00
583.09	4239.00
583.54	4285.00
584.00	4230.00
584.46	4257.00
584.91	4215.00
585.37	4335.00
585.83	4182.00
586.28	4208.00
586.74	4180.00
587.20	4136.00
587.65	4209.00
588.11	4054.00
588.57	4131.00
589.02	4038.00
589.48	3965.00
589.94	4070.00
590.39	4095.00
590.85	4065.00
591.30	4081.00
591.76	4136.00
592.22	4050.00
592.67	4074.00
593.13	4082.00
593.59	4084.00
594.04	4051.00
594.50	4053.00
594.95	4096.00
595.41	3970.00
595.87	4019.00
596.32	4113.00
596.78	4072.00
597.23	4105.00
597.69	4059.00
598.15	4031.00
598.60	4037.00
599.06	4035.00
599.51	4024.00
599.97	4005.00
600.43	4105.00
600.88	4041.00
601.34	4018.00
601.79	3935.00
602.25	4091.00
602.70	3970.00
603.16	4035.00
603.61	3980.00
604.07	3958.00
604.53	4014.00
604.98	3983.00
605.44	3967.00
605.89	3949.00
606.35	3912.00
606.80	3943.00
607.26	3929.00
607.71	3900.00
608.17	3973.00
608.62	3865.00
609.08	3944.00
609.53	3929.00
609.99	3920.00
610.44	3857.00
610.90	3853.00
611.35	3828.00
611.81	3842.00
612.26	3854.00
612.72	3826.00
613.17	3949.00
613.63	3752.00
614.08	3751.00
614.54	3758.00
614.99	3738.00
615.45	3738.00
615.90	3758.00
616.36	3690.00
616.81	3687.00
617.27	3736.00
617.72	3770.00
618.18	3686.00
618.63	3677.00
619.09	3678.00
619.54	3745.00
619.99	3724.00
620.45	3741.00
620.90	3755.00
621.36	3694.00
621.81	3721.00
622.27	3771.00
622.72	3705.00
623.18	3619.00
623.63	3604.00
624.08	3734.00
624.54	3573.00
624.99	3623.00
625.45	3624.00
625.90	3627.00
626.35	3642.00
626.81	3657.00
627.26	3608.00
627.72	3634.00
628.17	3654.00
628.62	3596.00
629.08	3635.00
629.53	3603.00
629.99	3611.00
630.44	3665.00
630.89	3635.00
631.35	3689.00
631.80	3607.00
632.26	3644.00
632.71	3614.00
633.16	3663.00
633.62	3583.00
634.07	3595.00
634.52	3597.00
634.98	3585.00
635.43	3608.00
635.88	3524.00
636.34	3584.00
636.79	3579.00
637.24	3560.00
637.70	3567.00
638.15	3603.00
638.60	3565.00
639.06	3520.00
639.51	3497.00
639.96	3454.00
640.42	3509.00
640.87	3543.00
641.32	3448.00
641.78	3461.00
642.23	3461.00
642.68	3414.00
643.14	3448.00
643.59	3476.00
644.04	3424.00
644.49	3415.00
644.95	3374.00
645.40	3367.00
645.85	3381.00
646.31	3357.00
646.76	3394.00
647.21	3379.00
647.66	3367.00
648.12	3383.00
648.57	3291.00
649.02	3371.00
649.47	3315.00
649.93	3448.00
650.38	3265.00
650.83	3277.00
651.28	3287.00
651.74	3300.00
652.19	3277.00
652.64	3269.00
653.09	3272.00
653.55	3300.00
654.00	3280.00
654.45	3275.00
654.90	3227.00
655.35	3228.00
655.81	3237.00
656.26	3162.00
656.71	3217.00
657.16	3247.00
657.62	3281.00
658.07	3278.00
658.52	3247.00
658.97	3193.00
659.42	3386.00
659.88	3235.00
660.33	3272.00
660.78	3239.00
661.23	3163.00
661.68	3185.00
662.13	3176.00
662.59	3148.00
663.04	3193.00
663.49	3149.00
663.94	3164.00
664.39	3137.00
664.84	3145.00
665.30	3165.00
665.75	3145.00
666.20	3146.00
666.65	3120.00
667.10	3242.00
667.55	3157.00
668.00	3134.00
668.46	3158.00
668.91	3092.00
669.36	3201.00
669.81	3057.00
670.26	3109.00
670.71	3155.00
671.16	3099.00
671.61	3176.00
672.06	3210.00
672.52	3140.00
672.97	3116.00
673.42	3150.00
673.87	3247.00
674.32	3119.00
674.77	3136.00
675.22	3040.00
675.67	3070.00
676.12	3093.00
676.57	3131.00
677.02	3115.00
677.47	3088.00
677.93	3194.00
678.38	3103.00
678.83	3087.00
679.28	3122.00
679.73	3082.00
680.18	3115.00
680.63	3098.00
681.08	3069.00
681.53	3079.00
681.98	3121.00
682.43	3127.00
682.88	3165.00
683.33	3144.00
683.78	3153.00
684.23	3198.00
684.68	3187.00
685.13	3156.00
685.58	3163.00
686.03	3136.00
686.48	3140.00
686.93	3184.00
687.38	3163.00
687.83	3213.00
688.28	3213.00
688.73	3339.00
689.18	3281.00
689.63	3198.00
690.08	3286.00
690.53	3323.00
690.98	3309.00
691.43	3405.00
691.88	3424.00
692.33	3512.00
692.78	3534.00
693.23	3627.00
693.68	3712.00
694.13	3733.00
694.58	3815.00
695.03	4086.00
695.48	3939.00
695.93	4013.00
696.38	4170.00
696.83	4195.00
697.28	4247.00
697.72	4367.00
698.17	4396.00
698.62	4545.00
699.07	4646.00
699.52	4638.00
699.97	4738.00
700.42	4836.00
700.87	4934.00
701.32	5152.00
701.77	5051.00
702.22	5215.00
702.67	5187.00
703.11	5373.00
703.56	5518.00
704.01	5694.00
704.46	5835.00
704.91	5913.00
705.36	5993.00
705.81	6096.00
706.26	6107.00
706.70	6261.00
707.15	6397.00
707.60	6456.00
708.05	6625.00
708.50	6792.00
708.95	6818.00
709.40	6923.00
709.84	7079.00
710.29	7135.00
710.74	7218.00
711.19	7300.00
711.64	7379.00
712.09	7496.00
712.53	7675.00
712.98	7740.00
713.43	7801.00
713.88	7937.00
714.33	8060.00
714.78	8073.00
715.22	8064.00
715.67	8256.00
716.12	8142.00
716.57	8000.00
717.02	7770.00
717.46	7649.00
717.91	7663.00
718.36	7676.00
718.81	7541.00
719.26	7682.00
719.70	7790.00
720.15	7899.00
720.60	8185.00
721.05	8612.00
721.49	9081.00
721.94	9190.00
722.39	9270.00
722.84	9160.00
723.28	8968.00
723.73	8891.00
724.18	8890.00
724.63	9018.00
725.07	9050.00
725.52	9300.00
725.97	9450.00
726.42	9526.00
726.86	9770.00
727.31	9608.00
727.76	9703.00
728.21	9920.00
728.65	10002.00
729.10	10015.00
729.55	10055.00
729.99	10512.00
730.44	10438.00
730.89	10539.00
731.33	10864.00
731.78	10971.00
732.23	11315.00
732.68	11501.00
733.12	11766.00
733.57	11916.00
734.02	12173.00
734.46	12343.00
734.91	12348.00
735.36	12429.00
735.80	12639.00
736.25	12545.00
736.70	12683.00
737.14	12862.00
737.59	12891.00
738.04	12955.00
738.48	12972.00
738.93	12967.00
739.37	13025.00
739.82	13392.00
740.27	13276.00
740.71	13441.00
741.16	13382.00
741.61	13547.00
742.05	13671.00
742.50	13708.00
742.94	13808.00
743.39	13894.00
743.84	13889.00
744.28	13982.00
744.73	13947.00
745.18	14095.00
745.62	14245.00
746.07	14228.00
746.51	14230.00
746.96	14225.00
747.40	14267.00
747.85	14267.00
748.30	14284.00
748.74	14213.00
749.19	14183.00
749.63	14335.00
750.08	14305.00
750.52	14256.00
750.97	14290.00
751.42	14150.00
751.86	14284.00
752.31	14148.00
752.75	14266.00
753.20	14219.00
753.64	14261.00
754.09	14320.00
754.53	14215.00
754.98	14383.00
755.42	14303.00
755.87	14175.00
756.31	14219.00
756.76	14138.00
757.20	14058.00
757.65	13981.00
758.09	13798.00
758.54	13583.00
758.98	12409.00
759.43	10254.00
759.87	7911.00
760.32	6338.00
760.76	6075.00
761.21	7000.00
761.65	8308.00
762.10	8631.00
762.54	8421.00
762.99	7950.00
763.43	8051.00
763.88	8512.00
764.32	9121.00
764.77	9676.00
765.21	10357.00
765.66	10817.00
766.10	11357.00
766.54	11859.00
766.99	12369.00
767.43	12736.00
767.88	13121.00
768.32	13351.00
768.77	13435.00
769.21	13868.00
769.66	13864.00
770.10	13992.00
770.54	14189.00
770.99	14020.00
771.43	14071.00
771.88	14128.00
772.32	14101.00
772.76	14050.00
773.21	13945.00
773.65	13984.00
774.10	13916.00
774.54	13903.00
774.98	13938.00
775.43	14029.00
775.87	14129.00
776.31	14327.00
776.76	14266.00
777.20	14061.00
777.65	13978.00
778.09	13945.00
778.53	13855.00
778.98	13942.00
779.42	13924.00
779.86	13890.00
780.31	13824.00
780.75	13930.00
781.19	14110.00
781.64	13965.00
782.08	14054.00
782.52	13994.00
782.97	13813.00
783.41	13835.00
783.85	13549.00
784.30	13566.00
784.74	13529.00
785.18	13622.00
785.63	13500.00
786.07	13608.00
786.51	13633.00
786.95	13648.00
787.40	13443.00
787.84	13450.00
788.28	13402.00
788.73	13324.00
789.17	13241.00
789.61	12999.00
790.05	13002.00
790.50	13012.00
790.94	12881.00
791.38	12919.00
791.82	12992.00
792.27	13005.00
792.71	13099.00
793.15	13222.00
793.59	12992.00
794.04	12960.00
794.48	12799.00
794.92	12688.00
795.36	12694.00
795.81	12644.00
796.25	12528.00
796.69	12658.00
797.13	12771.00
797.57	12906.00
798.02	12938.00
798.46	13047.00
798.90	12945.00
799.34	12866.00
799.79	12651.00
800.23	12468.00
800.67	12358.00
801.11	12415.00
801.55	12398.00
801.99	12351.00
802.44	12351.00
802.88	12465.00
803.32	12544.00
803.76	12524.00
804.20	12586.00
804.64	12504.00
805.09	12628.00
805.53	12637.00
805.97	12420.00
806.41	12234.00
806.85	12206.00
807.29	12008.00
807.74	12072.00
808.18	11968.00
808.62	12112.00
809.06	12052.00
809.50	12095.00
809.94	12066.00
810.38	12110.00
810.82	12100.00
811.27	12099.00
811.71	11731.00
812.15	11549.00
812.59	11348.00
813.03	11154.00
813.47	10764.00
813.91	10545.00
814.35	10395.00
814.79	10341.00
815.23	10351.00
815.67	10118.00
816.12	10234.00
816.56	10084.00
817.00	10305.00
817.44	10273.00
817.88	10373.00
818.32	10069.00
818.76	10202.00
819.20	10155.00
819.64	10218.00
820.08	10454.00
820.52	10561.00
820.96	10866.00
821.40	10724.00
821.84	10438.00
822.28	9915.00
822.72	9793.00
823.16	9658.00
823.60	10028.00
824.04	10692.00
824.48	10908.00
824.92	10842.00
825.36	10828.00
825.80	10728.00
826.24	10607.00
826.68	10529.00
827.12	10552.00
827.56	10456.00
828.00	10438.00
828.44	10390.00
828.88	10585.00
829.32	10676.00
829.76	10670.00
830.20	10857.00
830.64	10691.00
831.08	10711.00
831.52	10544.00
831.96	10474.00
832.40	10341.00
832.84	10381.00
833.28	10566.00
833.72	10645.00
834.16	10837.00
834.60	11026.00
835.04	11209.00
835.48	11227.00
835.91	11125.00
836.35	11153.00
836.79	11034.00
837.23	11110.00
837.67	10849.00
838.11	10770.00
838.55	10872.00
838.99	10862.00
839.43	10991.00
839.87	11238.00
840.30	11281.00
840.74	11473.00
841.18	11331.00
841.62	11418.00
842.06	11438.00
842.50	11491.00
842.94	11257.00
843.38	11052.00
843.81	10937.00
844.25	10935.00
844.69	10914.00
845.13	10854.00
845.57	10896.00
846.01	11019.00
846.45	11042.00
846.88	11124.00
847.32	11210.00
847.76	11377.00
848.20	11488.00
848.64	11270.00
849.08	11107.00
849.51	11061.00
849.95	10909.00
850.39	10757.00
850.83	10982.00
851.27	10875.00
851.70	10767.00
852.14	10570.00
852.58	10561.00
853.02	10369.00
853.46	10078.00
853.89	10009.00
854.33	10043.00
854.77	10382.00
855.21	10842.00
855.65	11258.00
856.08	11305.00
856.52	11360.00
856.96	11185.00
857.40	10941.00
857.83	10903.00
858.27	10719.00
858.71	10510.00
859.15	10558.00
859.58	10726.00
860.02	10796.00
860.46	10845.00
860.89	10995.00
861.33	11166.00
861.77	11197.00
862.21	11321.00
862.64	11321.00
863.08	11305.00
863.52	11204.00
863.95	10932.00
864.39	10781.00
864.83	10462.00
865.27	10103.00
865.70	10019.00
866.14	9890.00
866.58	9995.00
867.01	10216.00
867.45	10570.00
867.89	10827.00
868.32	10899.00
868.76	11158.00
869.20	11178.00
869.63	11180.00
870.07	11043.00
870.51	10652.00
870.94	10521.00
871.38	10367.00
871.82	10215.00
872.25	10206.00
872.69	10173.00
873.13	10287.00
873.56	10411.00
874.00	10470.00
874.43	10552.00
874.87	10760.00
875.31	10939.00
875.74	10798.00
876.18	10904.00
876.61	10901.00
877.05	10747.00
877.49	10660.00
877.92	10525.00
878.36	10352.00
878.79	10131.00
879.23	10065.00
879.67	9887.00
880.10	9931.00
880.54	9901.00
880.97	10056.00
881.41	10380.00
881.84	10641.00
882.28	10746.00
882.72	10837.00
883.15	10897.00
883.59	10950.00
884.02	10890.00
884.46	10734.00
884.89	10601.00
885.33	10541.00
885.76	10139.00
886.20	10080.00
886.63	9931.00
887.07	9794.00
887.50	9848.00
887.94	9937.00
888.37	9985.00
888.81	10239.00
889.24	10223.00
889.68	10419.00
890.11	10398.00
890.55	10519.00
890.98	10563.00
891.42	10558.00
891.85	10480.00
892.29	10301.00
892.72	10028.00
893.16	9799.00
893.59	9707.00
894.03	9517.00
894.46	9234.00
894.90	8880.00
895.33	8696.00
895.77	8710.00
896.20	8698.00
896.63	8555.00
897.07	8733.00
897.50	8597.00
897.94	8675.00
898.37	8926.00
898.81	8566.00
899.24	8334.00
899.68	8722.00
900.11	8634.00
900.54	8433.00
900.98	8292.00
901.41	8271.00
901.85	8400.00
902.28	8320.00
902.71	8422.00
903.15	8775.00
903.58	8948.00
904.02	9040.00
904.45	8899.00
904.88	8953.00
905.32	8877.00
905.75	8972.00
906.18	8689.00
906.62	8713.00
907.05	8499.00
907.48	8500.00
907.92	8411.00
908.35	8445.00
908.79	8236.00
909.22	8224.00
909.65	8177.00
910.09	8194.00
910.52	8202.00
910.95	8021.00
911.38	8159.00
911.82	7907.00
912.25	8007.00
912.68	8098.00
913.12	8089.00
913.55	8254.00
913.98	8302.00
914.42	8533.00
914.85	8679.00
915.28	8306.00
915.72	8308.00
916.15	8210.00
916.58	8230.00
917.01	7966.00
917.45	7866.00
917.88	7958.00
918.31	8170.00
918.74	8431.00
919.18	8534.00
919.61	8507.00
920.04	8598.00
920.47	8720.00
920.91	8764.00
921.34	8743.00
921.77	8784.00
922.20	8838.00
922.64	8892.00
923.07	8758.00
923.50	8745.00
923.93	8489.00
924.37	8398.00
924.80	8277.00
925.23	8249.00
925.66	8098.00
926.09	7733.00
926.53	7690.00
926.96	7451.00
927.39	7339.00
927.82	6998.00
928.25	6792.00
928.69	6792.00
929.12	6629.00
929.55	6411.00
929.98	6217.00
930.41	6003.00
930.84	5794.00
931.28	5488.00
931.71	5296.00
932.14	4995.00
932.57	4923.00
933.00	4694.00
933.43	4636.00
933.86	4491.00
934.30	4345.00
934.73	4604.00
935.16	4569.00
935.59	4435.00
936.02	4504.00
936.45	4517.00
936.88	4431.00
937.31	4658.00
937.75	4776.00
938.18	4911.00
938.61	5038.00
939.04	5140.00
939.47	5095.00
939.90	4934.00
940.33	4875.00
940.76	4634.00
941.19	4604.00
941.62	4428.00
942.05	4440.00
942.48	4282.00
942.91	4189.00
943.35	4306.00
943.78	4280.00
944.21	4229.00
944.64	4377.00
945.07	4404.00
945.50	4377.00
945.93	4444.00
946.36	4563.00
946.79	4588.00
947.22	4705.00
947.65	4692.00
948.08	4545.00
948.51	4660.00
948.94	4749.00
949.37	4730.00
949.80	4584.00
950.23	4596.00
950.66	4721.00
951.09	4710.00
951.52	4571.00
951.95	4674.00
952.38	4672.00
952.81	4918.00
953.24	4910.00
953.67	5019.00
954.10	4956.00
954.53	5070.00
954.96	5102.00
955.39	5152.00
955.82	5270.00
956.25	5227.00
956.68	5302.00
957.11	5233.00
957.53	5258.00
957.96	5115.00
958.39	5146.00
958.82	4966.00
959.25	5071.00
959.68	5252.00
960.11	5291.00
960.54	5415.00
960.97	5508.00
961.40	5697.00
961.83	5599.00
962.26	5573.00
962.68	5939.00
963.11	5974.00
963.54	5987.00
963.97	6041.00
964.40	5995.00
964.83	6109.00
965.26	6119.00
965.69	6071.00
966.11	6052.00
966.54	5990.00
966.97	6239.00
967.40	6310.00
967.83	6463.00
968.26	6371.00
968.69	6326.00
969.11	6416.00
969.54	6320.00
969.97	6337.00
970.40	6534.00
970.83	6516.00
971.26	6536.00
971.68	6507.00
972.11	6499.00
972.54	6685.00
972.97	6527.00
973.40	6420.00
973.82	6472.00
974.25	6407.00
974.68	6335.00
975.11	6378.00
975.54	6296.00
975.96	6297.00
976.39	6163.00
976.82	6299.00
977.25	6269.00
977.67	6234.00
978.10	6203.00
978.53	6284.00
978.96	6418.00
979.38	6491.00
979.81	6487.00
980.24	6745.00
980.67	6868.00
981.09	6792.00
981.52	6938.00
981.95	6832.00
982.38	6959.00
982.80	6931.00
983.23	7025.00
983.66	7045.00
984.08	6947.00
984.51	6824.00
984.94	6810.00
985.37	6853.00
985.79	6737.00
986.22	6618.00
986.65	6591.00
987.07	6555.00
987.50	6590.00
987.93	6619.00
988.35	6605.00
988.78	6659.00
989.21	6651.00
989.63	6773.00
990.06	6769.00
990.49	6862.00
990.91	6965.00
991.34	6918.00
991.77	6999.00
992.19	6957.00
992.62	6947.00
993.05	6884.00
993.47	6840.00
993.90	6869.00
994.32	6727.00
994.75	6662.00
995.18	6475.00
995.60	6539.00
996.03	6374.00
996.45	6435.00
996.88	6444.00
997.31	6455.00
997.73	6348.00
998.16	6337.00
998.58	6515.00
999.01	6475.00
999.44	6548.00
999.86	6597.00
1000.29	6550.00
1000.71	6636.00
1001.14	6691.00
1001.56	6668.00
1001.99	6632.00
1002.41	6488.00
1002.84	6466.00
1003.27	6336.00
1003.69	6348.00
1004.12	6154.00
1004.54	6160.00
1004.97	6085.00
1005.39	6068.00
1005.82	6087.00
1006.24	5972.00
1006.67	5989.00
1007.09	6025.00
1007.52	5959.00
1007.94	5971.00
1008.37	6129.00
1008.79	6033.00
1009.22	6072.00
1009.64	5990.00
1010.07	6118.00
1010.49	6107.00
1010.92	6076.00
1011.34	6075.00
1011.77	6070.00
1012.19	6046.00
1012.62	6022.00
1013.04	5976.00
1013.46	5940.00
1013.89	5714.00
1014.31	5775.00
1014.74	5707.00
1015.16	5607.00
1015.59	5596.00
1016.01	5692.00
1016.44	5656.00
1016.86	6535.00
1017.28	5642.00
1017.71	5666.00
1018.13	5795.00
1018.56	5853.00
1018.98	5885.00
1019.40	5836.00
1019.83	5836.00
1020.25	5884.00
1020.68	5876.00
1021.10	5985.00
1021.52	5933.00
1021.95	6101.00
1022.37	6023.00
1022.79	5973.00
1023.22	5859.00
1023.64	5895.00
1024.07	5902.00
1024.49	5850.00
1024.91	5696.00
1025.34	5652.00
1025.76	5783.00
1026.18	5695.00
1026.61	5607.00
1027.03	5660.00
1027.45	5600.00
1027.88	5612.00
1028.30	5727.00
1028.72	5703.00
1029.15	5693.00
1029.57	5731.00
1029.99	5855.00
1030.41	5681.00
1030.84	5735.00
1031.26	5761.00
1031.68	5644.00
1032.11	5695.00
1032.53	5553.00
1032.95	5542.00
1033.37	5524.00
1033.80	5451.00
1034.22	5366.00
1034.64	5426.00
1035.06	5278.00
1035.49	5258.00
1035.91	5244.00
1036.33	5147.00
1036.75	5245.00
1037.18	5178.00
1037.60	5182.00
1038.02	5191.00
1038.44	5204.00
1038.87	5211.00
1039.29	5151.00
1039.71	5176.00
1040.13	5093.00
1040.55	5255.00
1040.98	5225.00
1041.40	5167.00
1041.82	5149.00
1042.24	5100.00
1042.66	5108.00
1043.09	5039.00
1043.51	4988.00
1043.93	4927.00
1044.35	4875.00
1044.77	4917.00
1045.20	4834.00
1045.62	4757.00
1046.04	4750.00
1046.46	4805.00
1046.88	4668.00
1047.30	4762.00
1047.72	4702.00
1048.15	4700.00
1048.57	4673.00
1048.99	4618.00
1049.41	4651.00
1049.83	4705.00
1050.25	4710.00
1050.67	4709.00
1051.09	4639.00
1051.52	4626.00
1051.94	4517.00
1052.36	4600.00
1052.78	4520.00
1053.20	4561.00
1053.62	4551.00
1054.04	4557.00
1054.46	4501.00
1054.88	4531.00
1055.30	4479.00
1055.72	4473.00
1056.14	4387.00
1056.57	4563.00
1056.99	4316.00
1057.41	4330.00
1057.83	4341.00
1058.25	4223.00
1058.67	4213.00
1059.09	4237.00
1059.51	4238.00
1059.93	4171.00
1060.35	4176.00
1060.77	4161.00
1061.19	4229.00
1061.61	4116.00
1062.03	4147.00
1062.45	4129.00
1062.87	4147.00
1063.29	4146.00
1063.71	4114.00
1064.13	4092.00
1064.55	4080.00
1064.97	4085.00
1065.39	4047.00
1065.81	4031.00
1066.23	4033.00
1066.65	4011.00
1067.07	4113.00
1067.49	3990.00
1067.91	3908.00
1068.33	3908.00
1068.75	3915.00
1069.17	3990.00
1069.59	3966.00
1070.00	3862.00
1070.42	3899.00
1070.84	3852.00
1071.26	3819.00
1071.68	3802.00
1072.10	3873.00
1072.52	3845.00
1072.94	3803.00
1073.36	3815.00
1073.78	3839.00
1074.20	3793.00
1074.62	3772.00
1075.03	3753.00
1075.45	3819.00
1075.87	3832.00
1076.29	3748.00
1076.71	3781.00
1077.13	3882.00
1077.55	3690.00
1077.97	3743.00
1078.38	3717.00
1078.80	3752.00
1079.22	3741.00
1079.64	3674.00
1080.06	3627.00
1080.48	3683.00
1080.89	3644.00
1081.31	3661.00
1081.73	3598.00
1082.15	3600.00
1082.57	3656.00
1082.99	3580.00
1083.40	3574.00
1083.82	3626.00
1084.24	3561.00
1084.66	3556.00
1085.08	3549.00
1085.49	3530.00
1085.91	3625.00
1086.33	4585.00
1086.75	3521.00
1087.17	3515.00
1087.58	3594.00
1088.00	3563.00
1088.42	3562.00
1088.84	3507.00
1089.25	3481.00
1089.67	3516.00
1090.09	3491.00
1090.51	3407.00
1090.92	3486.00
1091.34	3448.00
1091.76	3449.00
1092.18	3430.00
1092.59	3385.00
1093.01	3435.00
1093.43	3350.00
1093.84	3345.00
1094.26	3403.00
1094.68	3370.00
1095.10	3332.00
1095.51	3339.00
1095.93	3303.00
1096.35	3360.00
1096.76	3379.00
1097.18	3386.00
1097.60	3307.00
1098.01	3306.00
1098.43	3302.00
1098.85	3279.00
1099.26	3285.00
1099.68	3291.00
1100.10	3250.00
1100.51	3230.00
1100.93	3260.00
1101.35	3273.00
1101.76	3241.00
1102.18	3620.00
1102.60	3300.00
1103.01	3161.00
1103.43	3225.00
1103.84	3179.00
1104.26	3178.00
1104.68	3193.00
1105.09	3126.00
1105.51	3174.00
1105.92	3215.00
1106.34	3113.00
1106.76	3158.00
1107.17	3161.00
1107.59	3165.00
1108.00	3066.00
1108.42	3113.00
1108.83	3082.00
1109.25	3079.00
1109.67	3070.00
1110.08	3084.00
1110.50	3059.00
1110.91	3063.00
1111.33	3076.00
1111.74	3019.00
1112.16	3050.00
1112.57	3059.00
1112.99	3043.00
1113.41	3048.00
1113.82	3001.00
1114.24	3015.00
1114.65	3016.00
1115.07	2933.00
1115.48	2889.00
1115.90	2185.00
1116.31	2202.00
1116.73	2201.00
1117.14	2204.00
>>>>>End Processed Spectral Data<<<<<
