SpectraSuite Data File
++++++++++++++++++++++++++++++++++++
Date: Tue May 29 13:11:12 EEST 2018
User: CanSEE
Dark Spectrum Present: No
Reference Spectrum Present: No
Number of Sampled Component Spectra: 1
Spectrometers: MAYP11278
Integration Time (usec): 230000 (MAYP11278)
Spectra Averaged: 1 (MAYP11278)
Boxcar Smoothing: 0 (MAYP11278)
Correct for Electrical Dark: No (MAYP11278)
Strobe/Lamp Enabled: No (MAYP11278)
Correct for Detector Non-linearity: No (MAYP11278)
Correct for Stray Light: No (MAYP11278)
Number of Pixels in Processed Spectrum: 2068
>>>>>Begin Processed Spectral Data<<<<<
187.82	2339.00
188.30	2233.00
188.78	2214.00
189.26	2211.00
189.73	3358.00
190.21	3427.00
190.69	3571.00
191.17	3558.00
191.64	3618.00
192.12	3576.00
192.60	3586.00
193.07	3559.00
193.55	3569.00
194.03	3571.00
194.51	3590.00
194.98	3558.00
195.46	3606.00
195.94	3548.00
196.42	3557.00
196.89	3677.00
197.37	3582.00
197.85	3528.00
198.32	3555.00
198.80	3572.00
199.28	3575.00
199.76	3624.00
200.23	3578.00
200.71	3613.00
201.19	3578.00
201.66	3605.00
202.14	3573.00
202.62	3509.00
203.09	3560.00
203.57	3545.00
204.05	3577.00
204.53	3603.00
205.00	3557.00
205.48	3527.00
205.96	3631.00
206.43	3565.00
206.91	3603.00
207.39	3714.00
207.86	3597.00
208.34	3568.00
208.82	3610.00
209.29	3665.00
209.77	3572.00
210.25	3590.00
210.72	3561.00
211.20	3586.00
211.68	3599.00
212.15	3603.00
212.63	3646.00
213.11	3577.00
213.58	3537.00
214.06	3642.00
214.53	3611.00
215.01	3588.00
215.49	3623.00
215.96	3595.00
216.44	3609.00
216.92	3577.00
217.39	3557.00
217.87	3603.00
218.35	3582.00
218.82	3543.00
219.30	3581.00
219.77	3561.00
220.25	3563.00
220.73	3647.00
221.20	3588.00
221.68	3635.00
222.15	3578.00
222.63	3623.00
223.11	3560.00
223.58	3599.00
224.06	3577.00
224.53	3535.00
225.01	3528.00
225.49	3559.00
225.96	3559.00
226.44	3550.00
226.91	3616.00
227.39	3535.00
227.87	3603.00
228.34	3614.00
228.82	3595.00
229.29	3575.00
229.77	3603.00
230.24	3574.00
230.72	3555.00
231.20	3673.00
231.67	3574.00
232.15	3551.00
232.62	3535.00
233.10	3551.00
233.57	3604.00
234.05	3730.00
234.53	3595.00
235.00	3545.00
235.48	3553.00
235.95	3555.00
236.43	3613.00
236.90	3663.00
237.38	3560.00
237.85	3541.00
238.33	3577.00
238.80	3587.00
239.28	3559.00
239.75	3515.00
240.23	3618.00
240.71	3663.00
241.18	3540.00
241.66	3582.00
242.13	3624.00
242.61	3671.00
243.08	3525.00
243.56	3580.00
244.03	3617.00
244.51	3633.00
244.98	3547.00
245.46	3635.00
245.93	5406.00
246.41	3513.00
246.88	3605.00
247.36	3613.00
247.83	3605.00
248.31	3615.00
248.78	3535.00
249.26	3577.00
249.73	3586.00
250.21	3619.00
250.68	3650.00
251.16	3583.00
251.63	3697.00
252.10	3664.00
252.58	3573.00
253.05	3636.00
253.53	3601.00
254.00	3559.00
254.48	3634.00
254.95	3581.00
255.43	3593.00
255.90	3602.00
256.38	3562.00
256.85	3645.00
257.33	3625.00
257.80	3735.00
258.27	3588.00
258.75	3581.00
259.22	3575.00
259.70	3556.00
260.17	3639.00
260.65	3613.00
261.12	3590.00
261.59	3647.00
262.07	3581.00
262.54	3667.00
263.02	3619.00
263.49	3543.00
263.97	3621.00
264.44	3681.00
264.91	3589.00
265.39	3582.00
265.86	3614.00
266.34	3669.00
266.81	3615.00
267.28	3625.00
267.76	3601.00
268.23	3631.00
268.71	3515.00
269.18	3535.00
269.65	3594.00
270.13	3588.00
270.60	3650.00
271.08	3605.00
271.55	3601.00
272.02	3534.00
272.50	3563.00
272.97	3554.00
273.44	3613.00
273.92	3695.00
274.39	3609.00
274.87	3629.00
275.34	3584.00
275.81	3554.00
276.29	3617.00
276.76	3590.00
277.23	3504.00
277.71	3484.00
278.18	3452.00
278.65	3695.00
279.13	3523.00
279.60	3561.00
280.07	3851.00
280.55	3768.00
281.02	3950.00
281.50	3706.00
281.97	3745.00
282.44	3626.00
282.91	3651.00
283.39	3677.00
283.86	3640.00
284.33	3586.00
284.81	3689.00
285.28	3633.00
285.75	3633.00
286.23	3609.00
286.70	3573.00
287.17	3653.00
287.65	3687.00
288.12	3608.00
288.59	3635.00
289.07	3537.00
289.54	3716.00
290.01	3580.00
290.48	3633.00
290.96	3580.00
291.43	3685.00
291.90	3677.00
292.38	3567.00
292.85	3679.00
293.32	3607.00
293.79	3629.00
294.27	3650.00
294.74	3600.00
295.21	3637.00
295.69	3657.00
296.16	3721.00
296.63	3689.00
297.10	3624.00
297.58	3658.00
298.05	3669.00
298.52	3623.00
298.99	3699.00
299.47	3627.00
299.94	3662.00
300.41	3580.00
300.88	3653.00
301.36	3689.00
301.83	3652.00
302.30	3583.00
302.77	3677.00
303.25	3651.00
303.72	3599.00
304.19	3595.00
304.66	3536.00
305.13	3663.00
305.61	3651.00
306.08	3621.00
306.55	3651.00
307.02	3565.00
307.49	3553.00
307.97	3615.00
308.44	3632.00
308.91	3659.00
309.38	3638.00
309.86	3649.00
310.33	3607.00
310.80	3597.00
311.27	3635.00
311.74	3697.00
312.21	3620.00
312.69	3711.00
313.16	3605.00
313.63	3578.00
314.10	3648.00
314.57	3629.00
315.05	3610.00
315.52	3643.00
315.99	3649.00
316.46	3591.00
316.93	3634.00
317.40	3604.00
317.88	3753.00
318.35	3626.00
318.82	3617.00
319.29	3594.00
319.76	3645.00
320.23	3714.00
320.70	3693.00
321.18	3660.00
321.65	3533.00
322.12	3583.00
322.59	3751.00
323.06	3640.00
323.53	3772.00
324.00	3595.00
324.48	3652.00
324.95	3609.00
325.42	3642.00
325.89	3634.00
326.36	3663.00
326.83	3681.00
327.30	3661.00
327.77	3672.00
328.24	3696.00
328.72	3635.00
329.19	3648.00
329.66	3661.00
330.13	3624.00
330.60	3682.00
331.07	3680.00
331.54	3753.00
332.01	3638.00
332.48	3727.00
332.95	3708.00
333.43	3705.00
333.90	3723.00
334.37	3685.00
334.84	3707.00
335.31	3846.00
335.78	3615.00
336.25	3667.00
336.72	3608.00
337.19	3698.00
337.66	3613.00
338.13	3633.00
338.60	3727.00
339.07	3694.00
339.54	3597.00
340.01	3605.00
340.49	3576.00
340.96	3618.00
341.43	3659.00
341.90	3584.00
342.37	3623.00
342.84	3621.00
343.31	3624.00
343.78	3531.00
344.25	3621.00
344.72	3557.00
345.19	3616.00
345.66	3581.00
346.13	3569.00
346.60	3541.00
347.07	3659.00
347.54	3536.00
348.01	3577.00
348.48	3624.00
348.95	3557.00
349.42	3608.00
349.89	3668.00
350.36	3603.00
350.83	3571.00
351.30	3625.00
351.77	3657.00
352.24	3622.00
352.71	3566.00
353.18	3612.00
353.65	3602.00
354.12	3601.00
354.59	3649.00
355.06	3593.00
355.53	3659.00
356.00	3561.00
356.47	3664.00
356.94	3545.00
357.41	3742.00
357.88	3610.00
358.35	3551.00
358.82	3572.00
359.28	3578.00
359.75	3576.00
360.22	3659.00
360.69	3691.00
361.16	3599.00
361.63	3579.00
362.10	3633.00
362.57	3585.00
363.04	3603.00
363.51	3734.00
363.98	3644.00
364.45	3580.00
364.92	3578.00
365.39	3581.00
365.86	3584.00
366.32	3617.00
366.79	3586.00
367.26	4681.00
367.73	3963.00
368.20	3576.00
368.67	3636.00
369.14	3559.00
369.61	3640.00
370.08	3642.00
370.55	3643.00
371.02	4544.00
371.48	3613.00
371.95	3605.00
372.42	3585.00
372.89	3593.00
373.36	3597.00
373.83	3578.00
374.30	3581.00
374.77	3637.00
375.23	3585.00
375.70	3744.00
376.17	3624.00
376.64	3563.00
377.11	3596.00
377.58	3639.00
378.05	3661.00
378.51	3615.00
378.98	3671.00
379.45	3615.00
379.92	3675.00
380.39	3777.00
380.86	3644.00
381.33	3709.00
381.79	3703.00
382.26	3588.00
382.73	3617.00
383.20	3639.00
383.67	3649.00
384.14	3667.00
384.60	3831.00
385.07	3627.00
385.54	3605.00
386.01	3661.00
386.48	3726.00
386.94	3611.00
387.41	3625.00
387.88	3657.00
388.35	3603.00
388.82	3695.00
389.28	3618.00
389.75	3679.00
390.22	3625.00
390.69	3663.00
391.16	3642.00
391.62	3643.00
392.09	3695.00
392.56	3639.00
393.03	3649.00
393.50	3764.00
393.96	3641.00
394.43	3696.00
394.90	3617.00
395.37	3655.00
395.83	3845.00
396.30	3582.00
396.77	3683.00
397.24	3652.00
397.70	3588.00
398.17	3647.00
398.64	3678.00
399.11	3597.00
399.57	3707.00
400.04	3610.00
400.51	3720.00
400.98	3612.00
401.44	3677.00
401.91	3663.00
402.38	3659.00
402.84	3676.00
403.31	3762.00
403.78	3684.00
404.25	3733.00
404.71	3777.00
405.18	3762.00
405.65	3661.00
406.12	3746.00
406.58	3706.00
407.05	3780.00
407.52	3711.00
407.98	4274.00
408.45	3712.00
408.92	3643.00
409.38	3808.00
409.85	3724.00
410.32	3760.00
410.78	3741.00
411.25	3813.00
411.72	3765.00
412.18	3697.00
412.65	3805.00
413.12	3792.00
413.59	3815.00
414.05	3815.00
414.52	3888.00
414.98	3859.00
415.45	3938.00
415.92	3914.00
416.38	3881.00
416.85	3957.00
417.32	3849.00
417.78	3890.00
418.25	3911.00
418.72	3933.00
419.18	3981.00
419.65	3918.00
420.12	3991.00
420.58	3949.00
421.05	4016.00
421.51	3971.00
421.98	3978.00
422.45	4032.00
422.91	4058.00
423.38	4123.00
423.85	4079.00
424.31	4121.00
424.78	4115.00
425.24	4083.00
425.71	4213.00
426.18	4099.00
426.64	4155.00
427.11	4141.00
427.57	4221.00
428.04	4147.00
428.51	4200.00
428.97	4161.00
429.44	4175.00
429.90	4104.00
430.37	4220.00
430.83	4077.00
431.30	4171.00
431.77	4309.00
432.23	4345.00
432.70	4238.00
433.16	4304.00
433.63	4327.00
434.09	4318.00
434.56	4408.00
435.03	4321.00
435.49	4375.00
435.96	4441.00
436.42	4442.00
436.89	4497.00
437.35	4418.00
437.82	4430.00
438.28	4374.00
438.75	4436.00
439.21	4620.00
439.68	4573.00
440.14	4506.00
440.61	4612.00
441.07	4551.00
441.54	4546.00
442.00	4718.00
442.47	4553.00
442.94	4637.00
443.40	4701.00
443.87	4609.00
444.33	4726.00
444.80	4738.00
445.26	4752.00
445.73	4661.00
446.19	4740.00
446.65	4769.00
447.12	4864.00
447.58	4850.00
448.05	4865.00
448.51	4902.00
448.98	4951.00
449.44	4878.00
449.91	4923.00
450.37	4974.00
450.84	5008.00
451.30	5010.00
451.77	5093.00
452.23	4925.00
452.70	5019.00
453.16	4963.00
453.62	4994.00
454.09	5037.00
454.55	5076.00
455.02	5046.00
455.48	5091.00
455.95	5211.00
456.41	5080.00
456.88	5233.00
457.34	5145.00
457.80	5155.00
458.27	5047.00
458.73	5113.00
459.20	5169.00
459.66	5172.00
460.13	5153.00
460.59	5207.00
461.05	5271.00
461.52	5268.00
461.98	5189.00
462.45	5169.00
462.91	5282.00
463.37	5218.00
463.84	5235.00
464.30	5205.00
464.76	5189.00
465.23	5230.00
465.69	5267.00
466.16	5168.00
466.62	5193.00
467.08	5195.00
467.55	5231.00
468.01	5249.00
468.48	5261.00
468.94	5226.00
469.40	5151.00
469.87	5230.00
470.33	5209.00
470.79	5187.00
471.26	5209.00
471.72	5284.00
472.18	5315.00
472.65	5263.00
473.11	5329.00
473.57	5360.00
474.04	5309.00
474.50	5324.00
474.96	5338.00
475.43	5367.00
475.89	5362.00
476.35	5306.00
476.82	5361.00
477.28	5434.00
477.74	5521.00
478.21	5469.00
478.67	5493.00
479.13	5454.00
479.59	5584.00
480.06	5570.00
480.52	5452.00
480.98	5493.00
481.45	5574.00
481.91	5503.00
482.37	5484.00
482.84	5508.00
483.30	5451.00
483.76	5479.00
484.22	5633.00
484.69	5511.00
485.15	5333.00
485.61	5137.00
486.07	5147.00
486.54	5233.00
487.00	5407.00
487.46	5432.00
487.92	5501.00
488.39	5491.00
488.85	5495.00
489.31	5625.00
489.77	5737.00
490.24	5669.00
490.70	5651.00
491.16	5588.00
491.62	5568.00
492.09	5544.00
492.55	5793.00
493.01	5764.00
493.47	5827.00
493.94	5836.00
494.40	5939.00
494.86	5932.00
495.32	5943.00
495.78	6007.00
496.25	6016.00
496.71	6089.00
497.17	6181.00
497.63	6161.00
498.09	6028.00
498.56	6156.00
499.02	6208.00
499.48	6409.00
499.94	6176.00
500.40	6276.00
500.87	6330.00
501.33	6263.00
501.79	6455.00
502.25	6561.00
502.71	6935.00
503.17	6603.00
503.64	6616.00
504.10	6787.00
504.56	6900.00
505.02	7043.00
505.48	7184.00
505.94	7326.00
506.40	7402.00
506.87	7376.00
507.33	7469.00
507.79	7502.00
508.25	7618.00
508.71	7848.00
509.17	7941.00
509.63	8002.00
510.10	8163.00
510.56	8335.00
511.02	8591.00
511.48	8858.00
511.94	8754.00
512.40	8829.00
512.86	8907.00
513.32	9191.00
513.78	9155.00
514.25	9525.00
514.71	10369.00
515.17	9829.00
515.63	10117.00
516.09	9879.00
516.55	9571.00
517.01	9875.00
517.47	10437.00
517.93	10489.00
518.39	10939.00
518.85	11259.00
519.32	11655.00
519.78	12039.00
520.24	12354.00
520.70	12655.00
521.16	13053.00
521.62	13281.00
522.08	13468.00
522.54	13477.00
523.00	13933.00
523.46	14605.00
523.92	14933.00
524.38	15258.00
524.84	15224.00
525.30	15521.00
525.76	15513.00
526.22	14927.00
526.68	14872.00
527.14	15587.00
527.60	16354.00
528.06	16839.00
528.52	17445.00
528.98	17747.00
529.44	17619.00
529.90	17899.00
530.36	18383.00
530.82	18587.00
531.28	18810.00
531.74	18647.00
532.20	18302.00
532.66	18295.00
533.12	18844.00
533.58	19168.00
534.04	19293.00
534.50	19669.00
534.96	19995.00
535.42	20556.00
535.88	20529.00
536.34	20084.00
536.80	19939.00
537.26	20339.00
537.72	20669.00
538.18	20789.00
538.64	20829.00
539.10	20781.00
539.56	20750.00
540.02	20300.00
540.48	20382.00
540.94	20693.00
541.40	21226.00
541.86	21565.00
542.32	21588.00
542.78	21440.00
543.24	21791.00
543.69	22000.00
544.15	22312.00
544.61	22168.00
545.07	22216.00
545.53	22369.00
545.99	22481.00
546.45	22615.00
546.91	22728.00
547.37	22421.00
547.83	22531.00
548.29	22785.00
548.74	23314.00
549.20	23299.00
549.66	23484.00
550.12	23414.00
550.58	23404.00
551.04	23559.00
551.50	23608.00
551.96	23996.00
552.42	23711.00
552.87	23683.00
553.33	24017.00
553.79	23925.00
554.25	24083.00
554.71	24215.00
555.17	24270.00
555.63	23978.00
556.08	23703.00
556.54	23771.00
557.00	23574.00
557.46	23711.00
557.92	23814.00
558.38	23119.00
558.83	22925.00
559.29	23107.00
559.75	23135.00
560.21	23238.00
560.67	23784.00
561.13	23344.00
561.58	22877.00
562.04	23139.00
562.50	23001.00
562.96	23279.00
563.42	23166.00
563.87	22732.00
564.33	22933.00
564.79	22685.00
565.25	22260.00
565.71	21910.00
566.16	22160.00
566.62	22241.00
567.08	22152.00
567.54	22071.00
568.00	21714.00
568.45	21235.00
568.91	21291.00
569.37	21261.00
569.83	21013.00
570.28	20636.00
570.74	20184.00
571.20	20209.00
571.66	20531.00
572.11	20693.00
572.57	20475.00
573.03	20149.00
573.49	20131.00
573.94	19915.00
574.40	19880.00
574.86	19541.00
575.32	19148.00
575.77	19161.00
576.23	19004.00
576.69	19140.00
577.15	18913.00
577.60	18821.00
578.06	18382.00
578.52	18464.00
578.97	18499.00
579.43	18443.00
579.89	18471.00
580.34	18285.00
580.80	18367.00
581.26	18292.00
581.72	18131.00
582.17	18228.00
582.63	18371.00
583.09	18161.00
583.54	18183.00
584.00	18013.00
584.46	18032.00
584.91	17657.00
585.37	17491.00
585.83	17281.00
586.28	17303.00
586.74	17325.00
587.20	17459.00
587.65	17260.00
588.11	16777.00
588.57	16141.00
589.02	15400.00
589.48	15555.00
589.94	16035.00
590.39	16461.00
590.85	16518.00
591.30	16506.00
591.76	16385.00
592.22	16398.00
592.67	16441.00
593.13	16412.00
593.59	16505.00
594.04	16205.00
594.50	15885.00
594.95	16231.00
595.41	16244.00
595.87	16287.00
596.32	16431.00
596.78	16359.00
597.23	16257.00
597.69	16173.00
598.15	16018.00
598.60	16066.00
599.06	16219.00
599.51	16075.00
599.97	16075.00
600.43	16101.00
600.88	15911.00
601.34	15916.00
601.79	15666.00
602.25	15971.00
602.70	15927.00
603.16	16107.00
603.61	15998.00
604.07	15785.00
604.53	15937.00
604.98	15865.00
605.44	15709.00
605.89	15553.00
606.35	15503.00
606.80	15559.00
607.26	15448.00
607.71	15300.00
608.17	15158.00
608.62	14954.00
609.08	15067.00
609.53	14861.00
609.99	14672.00
610.44	14607.00
610.90	14785.00
611.35	14735.00
611.81	14520.00
612.26	14299.00
612.72	14384.00
613.17	14296.00
613.63	13845.00
614.08	13892.00
614.54	14014.00
614.99	13808.00
615.45	13781.00
615.90	13447.00
616.36	13273.00
616.81	13387.00
617.27	13437.00
617.72	13539.00
618.18	13513.00
618.63	13459.00
619.09	13265.00
619.54	13484.00
619.99	13446.00
620.45	13548.00
620.90	13372.00
621.36	13111.00
621.81	13234.00
622.27	13263.00
622.72	13135.00
623.18	12889.00
623.63	12993.00
624.08	12763.00
624.54	12741.00
624.99	12782.00
625.45	12689.00
625.90	12689.00
626.35	12845.00
626.81	12871.00
627.26	12780.00
627.72	12635.00
628.17	12611.00
628.62	12718.00
629.08	12671.00
629.53	12591.00
629.99	12669.00
630.44	12766.00
630.89	12654.00
631.35	12679.00
631.80	12618.00
632.26	12687.00
632.71	12802.00
633.16	12712.00
633.62	12601.00
634.07	12643.00
634.52	12644.00
634.98	12656.00
635.43	12517.00
635.88	12318.00
636.34	12328.00
636.79	12429.00
637.24	12377.00
637.70	12421.00
638.15	12287.00
638.60	12244.00
639.06	12154.00
639.51	11797.00
639.96	11776.00
640.42	11818.00
640.87	11529.00
641.32	11440.00
641.78	11399.00
642.23	11256.00
642.68	11312.00
643.14	11101.00
643.59	10979.00
644.04	10933.00
644.49	10753.00
644.95	10646.00
645.40	10438.00
645.85	10436.00
646.31	10287.00
646.76	10165.00
647.21	10029.00
647.66	10002.00
648.12	9771.00
648.57	9824.00
649.02	9719.00
649.47	9488.00
649.93	9819.00
650.38	9556.00
650.83	9652.00
651.28	9489.00
651.74	9356.00
652.19	9433.00
652.64	9386.00
653.09	9321.00
653.55	9325.00
654.00	9195.00
654.45	9203.00
654.90	8942.00
655.35	8673.00
655.81	8416.00
656.26	7958.00
656.71	8170.00
657.16	8527.00
657.62	8634.00
658.07	8642.00
658.52	8577.00
658.97	8448.00
659.42	8657.00
659.88	8306.00
660.33	8318.00
660.78	8222.00
661.23	8122.00
661.68	8097.00
662.13	8035.00
662.59	7841.00
663.04	7795.00
663.49	7666.00
663.94	7553.00
664.39	7547.00
664.84	7469.00
665.30	7423.00
665.75	7249.00
666.20	7191.00
666.65	7150.00
667.10	7255.00
667.55	7135.00
668.00	6987.00
668.46	7011.00
668.91	6933.00
669.36	7003.00
669.81	6704.00
670.26	6777.00
670.71	6798.00
671.16	6773.00
671.61	6715.00
672.06	6777.00
672.52	6650.00
672.97	6721.00
673.42	6661.00
673.87	6763.00
674.32	6551.00
674.77	6594.00
675.22	6453.00
675.67	6508.00
676.12	6543.00
676.57	6521.00
677.02	6493.00
677.47	6510.00
677.93	6695.00
678.38	6477.00
678.83	6524.00
679.28	6574.00
679.73	6533.00
680.18	6601.00
680.63	6603.00
681.08	6599.00
681.53	6616.00
681.98	6681.00
682.43	6782.00
682.88	6871.00
683.33	6910.00
683.78	6954.00
684.23	7055.00
684.68	7156.00
685.13	7288.00
685.58	7409.00
686.03	7441.00
686.48	7150.00
686.93	6856.00
687.38	7022.00
687.83	7537.00
688.28	7909.00
688.73	8237.00
689.18	8433.00
689.63	8649.00
690.08	9121.00
690.53	9508.00
690.98	10061.00
691.43	10434.00
691.88	11070.00
692.33	11405.00
692.78	11932.00
693.23	12529.00
693.68	13052.00
694.13	13506.00
694.58	14125.00
695.03	14939.00
695.48	15679.00
695.93	16328.00
696.38	17285.00
696.83	18144.00
697.28	18681.00
697.72	19273.00
698.17	19963.00
698.62	20492.00
699.07	21192.00
699.52	21792.00
699.97	22603.00
700.42	23266.00
700.87	23917.00
701.32	24783.00
701.77	25215.00
702.22	25879.00
702.67	26565.00
703.11	27718.00
703.56	28683.00
704.01	29362.00
704.46	30270.00
704.91	30962.00
705.36	31464.00
705.81	32159.00
706.26	32542.00
706.70	33231.00
707.15	33824.00
707.60	34713.00
708.05	35285.00
708.50	35895.00
708.95	36457.00
709.40	36995.00
709.84	37694.00
710.29	38071.00
710.74	38356.00
711.19	38844.00
711.64	39452.00
712.09	40189.00
712.53	40319.00
712.98	41003.00
713.43	41437.00
713.88	42081.00
714.33	42089.00
714.78	41941.00
715.22	42185.00
715.67	42633.00
716.12	42095.00
716.57	40608.00
717.02	39151.00
717.46	38359.00
717.91	37765.00
718.36	37117.00
718.81	36957.00
719.26	37112.00
719.70	37629.00
720.15	38271.00
720.60	40029.00
721.05	42646.00
721.49	44857.00
721.94	45651.00
722.39	45715.00
722.84	44703.00
723.28	42905.00
723.73	42489.00
724.18	42492.00
724.63	43264.00
725.07	43428.00
725.52	44040.00
725.97	44549.00
726.42	45249.00
726.86	45742.00
727.31	45227.00
727.76	45433.00
728.21	46136.00
728.65	46376.00
729.10	45880.00
729.55	46927.00
729.99	48004.00
730.44	48463.00
730.89	48670.00
731.33	49453.00
731.78	50723.00
732.23	51904.00
732.68	52913.00
733.12	53367.00
733.57	54468.00
734.02	55318.00
734.46	55909.00
734.91	55599.00
735.36	56028.00
735.80	56491.00
736.25	56774.00
736.70	57120.00
737.14	57634.00
737.59	58267.00
738.04	57850.00
738.48	57148.00
738.93	57365.00
739.37	58010.00
739.82	58778.00
740.27	59440.00
740.71	58806.00
741.16	58987.00
741.61	59248.00
742.05	59288.00
742.50	59613.00
742.94	60050.00
743.39	60478.00
743.84	60380.00
744.28	60410.00
744.73	60709.00
745.18	60857.00
745.62	61330.00
746.07	61420.00
746.51	61007.00
746.96	61198.00
747.40	60992.00
747.85	60904.00
748.30	60696.00
748.74	60331.00
749.19	60316.00
749.63	60848.00
750.08	60559.00
750.52	60616.00
750.97	60591.00
751.42	60583.00
751.86	60567.00
752.31	60576.00
752.75	60590.00
753.20	60103.00
753.64	60167.00
754.09	60300.00
754.53	60642.00
754.98	60293.00
755.42	60000.00
755.87	60135.00
756.31	59692.00
756.76	59522.00
757.20	59067.00
757.65	58524.00
758.09	57802.00
758.54	55864.00
758.98	49988.00
759.43	39440.00
759.87	27796.00
760.32	20790.00
760.76	20435.00
761.21	25321.00
761.65	30962.00
762.10	33218.00
762.54	31394.00
762.99	29508.00
763.43	30370.00
763.88	32494.00
764.32	35398.00
764.77	38215.00
765.21	41217.00
765.66	43917.00
766.10	46498.00
766.54	49018.00
766.99	50880.00
767.43	52658.00
767.88	54260.00
768.32	55110.00
768.77	55912.00
769.21	56788.00
769.66	57396.00
770.10	58037.00
770.54	58360.00
770.99	58658.00
771.43	58538.00
771.88	58233.00
772.32	58516.00
772.76	58172.00
773.21	58128.00
773.65	57972.00
774.10	57700.00
774.54	57479.00
774.98	57423.00
775.43	58298.00
775.87	59034.00
776.31	58884.00
776.76	58986.00
777.20	58522.00
777.65	58086.00
778.09	57832.00
778.53	57667.00
778.98	57595.00
779.42	57178.00
779.86	57050.00
780.31	57180.00
780.75	57481.00
781.19	57858.00
781.64	58111.00
782.08	57998.00
782.52	57693.00
782.97	57080.00
783.41	56756.00
783.85	56502.00
784.30	56103.00
784.74	55689.00
785.18	55791.00
785.63	55605.00
786.07	55665.00
786.51	56053.00
786.95	55993.00
787.40	56162.00
787.84	55282.00
788.28	55252.00
788.73	54981.00
789.17	54385.00
789.61	53657.00
790.05	53319.00
790.50	53052.00
790.94	53023.00
791.38	53095.00
791.82	53187.00
792.27	53139.00
792.71	53359.00
793.15	53562.00
793.59	53341.00
794.04	52850.00
794.48	52821.00
794.92	52253.00
795.36	51884.00
795.81	51506.00
796.25	51323.00
796.69	51378.00
797.13	52089.00
797.57	52332.00
798.02	52895.00
798.46	53024.00
798.90	52833.00
799.34	52059.00
799.79	51538.00
800.23	50713.00
800.67	50285.00
801.11	50347.00
801.55	50157.00
801.99	49949.00
802.44	49858.00
802.88	50293.00
803.32	50855.00
803.76	50929.00
804.20	50987.00
804.64	51002.00
805.09	50841.00
805.53	50867.00
805.97	50409.00
806.41	49829.00
806.85	49505.00
807.29	48938.00
807.74	48776.00
808.18	48752.00
808.62	48612.00
809.06	48591.00
809.50	48712.00
809.94	48936.00
810.38	48893.00
810.82	49016.00
811.27	48745.00
811.71	47786.00
812.15	46770.00
812.59	45385.00
813.03	44469.00
813.47	42790.00
813.91	42071.00
814.35	41254.00
814.79	40727.00
815.23	40564.00
815.67	39701.00
816.12	40257.00
816.56	40043.00
817.00	40309.00
817.44	40702.00
817.88	40563.00
818.32	39753.00
818.76	40346.00
819.20	40101.00
819.64	40494.00
820.08	40917.00
820.52	42079.00
820.96	42650.00
821.40	41973.00
821.84	40858.00
822.28	38619.00
822.72	38229.00
823.16	38111.00
823.60	40177.00
824.04	42707.00
824.48	43544.00
824.92	43358.00
825.36	43433.00
825.80	42894.00
826.24	42544.00
826.68	42189.00
827.12	41781.00
827.56	41149.00
828.00	40927.00
828.44	41353.00
828.88	41953.00
829.32	42085.00
829.76	42535.00
830.20	43179.00
830.64	42627.00
831.08	42445.00
831.52	41752.00
831.96	41143.00
832.40	40593.00
832.84	41123.00
833.28	41604.00
833.72	42064.00
834.16	43020.00
834.60	44404.00
835.04	44663.00
835.48	45054.00
835.91	44997.00
836.35	44732.00
836.79	44357.00
837.23	44101.00
837.67	43586.00
838.11	43437.00
838.55	43630.00
838.99	43518.00
839.43	44138.00
839.87	44663.00
840.30	44849.00
840.74	45754.00
841.18	46020.00
841.62	46209.00
842.06	46133.00
842.50	45983.00
842.94	45395.00
843.38	44769.00
843.81	44061.00
844.25	43658.00
844.69	43319.00
845.13	43080.00
845.57	43403.00
846.01	43573.00
846.45	44031.00
846.88	44525.00
847.32	44986.00
847.76	45667.00
848.20	45680.00
848.64	45169.00
849.08	44385.00
849.51	44294.00
849.95	43298.00
850.39	43296.00
850.83	43768.00
851.27	43641.00
851.70	42829.00
852.14	42484.00
852.58	41604.00
853.02	40294.00
853.46	39187.00
853.89	39058.00
854.33	39118.00
854.77	40963.00
855.21	43511.00
855.65	44919.00
856.08	45389.00
856.52	45261.00
856.96	45116.00
857.40	44224.00
857.83	43108.00
858.27	42604.00
858.71	41743.00
859.15	42043.00
859.58	42325.00
860.02	42569.00
860.46	43183.00
860.89	43971.00
861.33	44325.00
861.77	44916.00
862.21	45186.00
862.64	45288.00
863.08	45240.00
863.52	44665.00
863.95	43924.00
864.39	42996.00
864.83	41289.00
865.27	39531.00
865.70	39381.00
866.14	38460.00
866.58	38483.00
867.01	40543.00
867.45	41863.00
867.89	42846.00
868.32	43573.00
868.76	44423.00
869.20	44285.00
869.63	44530.00
870.07	43720.00
870.51	42947.00
870.94	42007.00
871.38	41107.00
871.82	40281.00
872.25	40108.00
872.69	40145.00
873.13	40376.00
873.56	40938.00
874.00	41283.00
874.43	41860.00
874.87	42724.00
875.31	42867.00
875.74	43169.00
876.18	43509.00
876.61	43324.00
877.05	42804.00
877.49	42417.00
877.92	41757.00
878.36	41091.00
878.79	40131.00
879.23	39466.00
879.67	38772.00
880.10	38894.00
880.54	38800.00
880.97	39378.00
881.41	40335.00
881.84	41601.00
882.28	42349.00
882.72	42946.00
883.15	43656.00
883.59	43633.00
884.02	43408.00
884.46	43170.00
884.89	42205.00
885.33	41531.00
885.76	40314.00
886.20	39576.00
886.63	39106.00
887.07	38490.00
887.50	38714.00
887.94	38837.00
888.37	39273.00
888.81	39800.00
889.24	40103.00
889.68	40823.00
890.11	41117.00
890.55	41608.00
890.98	41893.00
891.42	42051.00
891.85	41569.00
892.29	41143.00
892.72	39991.00
893.16	38704.00
893.59	38004.00
894.03	36737.00
894.46	35605.00
894.90	34297.00
895.33	32878.00
895.77	33032.00
896.20	32591.00
896.63	32721.00
897.07	32930.00
897.50	32593.00
897.94	32962.00
898.37	34016.00
898.81	31994.00
899.24	32035.00
899.68	33608.00
900.11	32736.00
900.54	31983.00
900.98	31682.00
901.41	31121.00
901.85	31580.00
902.28	31706.00
902.71	32128.00
903.15	32952.00
903.58	34171.00
904.02	34298.00
904.45	34202.00
904.88	34189.00
905.32	33848.00
905.75	33655.00
906.18	32593.00
906.62	32865.00
907.05	31933.00
907.48	32237.00
907.92	31694.00
908.35	31794.00
908.79	31233.00
909.22	31050.00
909.65	30584.00
910.09	30339.00
910.52	29644.00
910.95	30124.00
911.38	30446.00
911.82	29067.00
912.25	29785.00
912.68	30425.00
913.12	30378.00
913.55	30295.00
913.98	31507.00
914.42	32677.00
914.85	32907.00
915.28	31478.00
915.72	31059.00
916.15	30636.00
916.58	30952.00
917.01	29837.00
917.45	29072.00
917.88	29715.00
918.31	30258.00
918.74	31618.00
919.18	31800.00
919.61	31747.00
920.04	32533.00
920.47	32664.00
920.91	33023.00
921.34	33005.00
921.77	33184.00
922.20	33805.00
922.64	33522.00
923.07	33436.00
923.50	32867.00
923.93	32433.00
924.37	31998.00
924.80	31507.00
925.23	31080.00
925.66	29928.00
926.09	28584.00
926.53	28009.00
926.96	26989.00
927.39	25788.00
927.82	24430.00
928.25	23351.00
928.69	22976.00
929.12	22607.00
929.55	21353.00
929.98	20512.00
930.41	19343.00
930.84	18291.00
931.28	16942.00
931.71	15600.00
932.14	14089.00
932.57	13370.00
933.00	12738.00
933.43	12150.00
933.86	11517.00
934.30	11063.00
934.73	12434.00
935.16	11768.00
935.59	10989.00
936.02	11766.00
936.45	11387.00
936.88	11422.00
937.31	12662.00
937.75	13266.00
938.18	13939.00
938.61	14723.00
939.04	15429.00
939.47	15098.00
939.90	14018.00
940.33	13447.00
940.76	12409.00
941.19	11895.00
941.62	11687.00
942.05	11480.00
942.48	10210.00
942.91	10329.00
943.35	11083.00
943.78	10279.00
944.21	10074.00
944.64	11195.00
945.07	11341.00
945.50	11191.00
945.93	11345.00
946.36	11917.00
946.79	12308.00
947.22	13027.00
947.65	12631.00
948.08	11999.00
948.51	13085.00
948.94	13409.00
949.37	12625.00
949.80	12145.00
950.23	12443.00
950.66	13071.00
951.09	12844.00
951.52	12274.00
951.95	12496.00
952.38	12851.00
952.81	13753.00
953.24	14525.00
953.67	14746.00
954.10	14468.00
954.53	15173.00
954.96	14929.00
955.39	15645.00
955.82	16384.00
956.25	15784.00
956.68	16192.00
957.11	16573.00
957.53	15903.00
957.96	15926.00
958.39	15419.00
958.82	14864.00
959.25	15507.00
959.68	16171.00
960.11	16386.00
960.54	16674.00
960.97	17477.00
961.40	18058.00
961.83	17823.00
962.26	18287.00
962.68	19697.00
963.11	20012.00
963.54	20264.00
963.97	20516.00
964.40	20246.00
964.83	21011.00
965.26	21167.00
965.69	20772.00
966.11	20639.00
966.54	20755.00
966.97	21694.00
967.40	21905.00
967.83	22053.00
968.26	22004.00
968.69	22201.00
969.11	22243.00
969.54	22045.00
969.97	22387.00
970.40	22835.00
970.83	22873.00
971.26	22952.00
971.68	22959.00
972.11	23084.00
972.54	23669.00
972.97	23295.00
973.40	23083.00
973.82	22928.00
974.25	22942.00
974.68	22627.00
975.11	22315.00
975.54	21885.00
975.96	21437.00
976.39	21546.00
976.82	21719.00
977.25	21382.00
977.67	21309.00
978.10	21583.00
978.53	21853.00
978.96	22457.00
979.38	22776.00
979.81	23107.00
980.24	23964.00
980.67	24337.00
981.09	24765.00
981.52	24766.00
981.95	24831.00
982.38	24980.00
982.80	25203.00
983.23	25573.00
983.66	25671.00
984.08	25252.00
984.51	25151.00
984.94	24891.00
985.37	24478.00
985.79	24247.00
986.22	23641.00
986.65	23147.00
987.07	23149.00
987.50	23092.00
987.93	22997.00
988.35	22892.00
988.78	23328.00
989.21	23459.00
989.63	23918.00
990.06	24240.00
990.49	24605.00
990.91	24935.00
991.34	24981.00
991.77	25201.00
992.19	25296.00
992.62	25149.00
993.05	25137.00
993.47	24735.00
993.90	24608.00
994.32	23977.00
994.75	23575.00
995.18	23351.00
995.60	23008.00
996.03	22637.00
996.45	22472.00
996.88	22089.00
997.31	22094.00
997.73	22045.00
998.16	22091.00
998.58	22130.00
999.01	22352.00
999.44	22832.00
999.86	23026.00
1000.29	23190.00
1000.71	23198.00
1001.14	23392.00
1001.56	23191.00
1001.99	23206.00
1002.41	22871.00
1002.84	22293.00
1003.27	21980.00
1003.69	21448.00
1004.12	20960.00
1004.54	20503.00
1004.97	20391.00
1005.39	20005.00
1005.82	19907.00
1006.24	19970.00
1006.67	19732.00
1007.09	19535.00
1007.52	19669.00
1007.94	19736.00
1008.37	19961.00
1008.79	20017.00
1009.22	19777.00
1009.64	20008.00
1010.07	20019.00
1010.49	20073.00
1010.92	20037.00
1011.34	20226.00
1011.77	20202.00
1012.19	19975.00
1012.62	19893.00
1013.04	19587.00
1013.46	19327.00
1013.89	18675.00
1014.31	18383.00
1014.74	18035.00
1015.16	18018.00
1015.59	17855.00
1016.01	17888.00
1016.44	17761.00
1016.86	19058.00
1017.28	17979.00
1017.71	18079.00
1018.13	18409.00
1018.56	18448.00
1018.98	18647.00
1019.40	18779.00
1019.83	18803.00
1020.25	18945.00
1020.68	19002.00
1021.10	19092.00
1021.52	19307.00
1021.95	19543.00
1022.37	19443.00
1022.79	19359.00
1023.22	19312.00
1023.64	18920.00
1024.07	18672.00
1024.49	18533.00
1024.91	18255.00
1025.34	17854.00
1025.76	18034.00
1026.18	17675.00
1026.61	17448.00
1027.03	17352.00
1027.45	17494.00
1027.88	17493.00
1028.30	17736.00
1028.72	17751.00
1029.15	17961.00
1029.57	17910.00
1029.99	17886.00
1030.41	17968.00
1030.84	17986.00
1031.26	17845.00
1031.68	17666.00
1032.11	17569.00
1032.53	17355.00
1032.95	17193.00
1033.37	16949.00
1033.80	16636.00
1034.22	16346.00
1034.64	16153.00
1035.06	15883.00
1035.49	15610.00
1035.91	15398.00
1036.33	15246.00
1036.75	15110.00
1037.18	14925.00
1037.60	15010.00
1038.02	14935.00
1038.44	15023.00
1038.87	14959.00
1039.29	14923.00
1039.71	14968.00
1040.13	14932.00
1040.55	15029.00
1040.98	15067.00
1041.40	14979.00
1041.82	14871.00
1042.24	14659.00
1042.66	14587.00
1043.09	14329.00
1043.51	14043.00
1043.93	13930.00
1044.35	13635.00
1044.77	13402.00
1045.20	13236.00
1045.62	13046.00
1046.04	12880.00
1046.46	12831.00
1046.88	12559.00
1047.30	12547.00
1047.72	12327.00
1048.15	12361.00
1048.57	12158.00
1048.99	12178.00
1049.41	12151.00
1049.83	12165.00
1050.25	12251.00
1050.67	12014.00
1051.09	11954.00
1051.52	12019.00
1051.94	11881.00
1052.36	11879.00
1052.78	11749.00
1053.20	11730.00
1053.62	11665.00
1054.04	11561.00
1054.46	11403.00
1054.88	11354.00
1055.30	11244.00
1055.72	11034.00
1056.14	10854.00
1056.57	10893.00
1056.99	10605.00
1057.41	10427.00
1057.83	10387.00
1058.25	10203.00
1058.67	10164.00
1059.09	9913.00
1059.51	9874.00
1059.93	9795.00
1060.35	9652.00
1060.77	9640.00
1061.19	9681.00
1061.61	9550.00
1062.03	9469.00
1062.45	9457.00
1062.87	9398.00
1063.29	9483.00
1063.71	9303.00
1064.13	9178.00
1064.55	9235.00
1064.97	9154.00
1065.39	9148.00
1065.81	9078.00
1066.23	8965.00
1066.65	8841.00
1067.07	8977.00
1067.49	8546.00
1067.91	8528.00
1068.33	8424.00
1068.75	8543.00
1069.17	8361.00
1069.59	8345.00
1070.00	8160.00
1070.42	8219.00
1070.84	8025.00
1071.26	7919.00
1071.68	7886.00
1072.10	7940.00
1072.52	7854.00
1072.94	7792.00
1073.36	7749.00
1073.78	7773.00
1074.20	7851.00
1074.62	7671.00
1075.03	7624.00
1075.45	7729.00
1075.87	7647.00
1076.29	7609.00
1076.71	7638.00
1077.13	7567.00
1077.55	7423.00
1077.97	7423.00
1078.38	7288.00
1078.80	7285.00
1079.22	7145.00
1079.64	7051.00
1080.06	6992.00
1080.48	7081.00
1080.89	6867.00
1081.31	6849.00
1081.73	6743.00
1082.15	6709.00
1082.57	6782.00
1082.99	6637.00
1083.40	6581.00
1083.82	6603.00
1084.24	6499.00
1084.66	6465.00
1085.08	6464.00
1085.49	6435.00
1085.91	6493.00
1086.33	7733.00
1086.75	6365.00
1087.17	6383.00
1087.58	6371.00
1088.00	6364.00
1088.42	6391.00
1088.84	6202.00
1089.25	6115.00
1089.67	6151.00
1090.09	6044.00
1090.51	6000.00
1090.92	5967.00
1091.34	5787.00
1091.76	5787.00
1092.18	5705.00
1092.59	5691.00
1093.01	5579.00
1093.43	5594.00
1093.84	5560.00
1094.26	5483.00
1094.68	5495.00
1095.10	5391.00
1095.51	5357.00
1095.93	5341.00
1096.35	5373.00
1096.76	5379.00
1097.18	5339.00
1097.60	5192.00
1098.01	5217.00
1098.43	5137.00
1098.85	5124.00
1099.26	5028.00
1099.68	5022.00
1100.10	4977.00
1100.51	4899.00
1100.93	4874.00
1101.35	4857.00
1101.76	4845.00
1102.18	5272.00
1102.60	4789.00
1103.01	4570.00
1103.43	4669.00
1103.84	4667.00
1104.26	4602.00
1104.68	4597.00
1105.09	4554.00
1105.51	4534.00
1105.92	4559.00
1106.34	4445.00
1106.76	4482.00
1107.17	4455.00
1107.59	4351.00
1108.00	4213.00
1108.42	4305.00
1108.83	4173.00
1109.25	4131.00
1109.67	4095.00
1110.08	4137.00
1110.50	4051.00
1110.91	4040.00
1111.33	3986.00
1111.74	3937.00
1112.16	3982.00
1112.57	3909.00
1112.99	3865.00
1113.41	3819.00
1113.82	3736.00
1114.24	3683.00
1114.65	3630.00
1115.07	3464.00
1115.48	3359.00
1115.90	2187.00
1116.31	2210.00
1116.73	2215.00
1117.14	2211.00
>>>>>End Processed Spectral Data<<<<<
