SpectraSuite Data File
++++++++++++++++++++++++++++++++++++
Date: Tue May 29 13:11:08 EEST 2018
User: CanSEE
Dark Spectrum Present: No
Reference Spectrum Present: No
Number of Sampled Component Spectra: 1
Spectrometers: MAYP11278
Integration Time (usec): 230000 (MAYP11278)
Spectra Averaged: 1 (MAYP11278)
Boxcar Smoothing: 0 (MAYP11278)
Correct for Electrical Dark: No (MAYP11278)
Strobe/Lamp Enabled: No (MAYP11278)
Correct for Detector Non-linearity: No (MAYP11278)
Correct for Stray Light: No (MAYP11278)
Number of Pixels in Processed Spectrum: 2068
>>>>>Begin Processed Spectral Data<<<<<
187.82	2346.00
188.30	2239.00
188.78	2212.00
189.26	2214.00
189.73	3236.00
190.21	3414.00
190.69	3515.00
191.17	3565.00
191.64	3623.00
192.12	3551.00
192.60	3540.00
193.07	3536.00
193.55	3573.00
194.03	3545.00
194.51	3579.00
194.98	3531.00
195.46	3625.00
195.94	3529.00
196.42	3572.00
196.89	3633.00
197.37	3585.00
197.85	3537.00
198.32	3538.00
198.80	3503.00
199.28	3579.00
199.76	3581.00
200.23	3552.00
200.71	3553.00
201.19	3567.00
201.66	3582.00
202.14	3543.00
202.62	3474.00
203.09	3581.00
203.57	3521.00
204.05	3595.00
204.53	3639.00
205.00	3514.00
205.48	3543.00
205.96	3607.00
206.43	3558.00
206.91	3585.00
207.39	3677.00
207.86	3589.00
208.34	3570.00
208.82	3560.00
209.29	3610.00
209.77	3610.00
210.25	3561.00
210.72	3563.00
211.20	3591.00
211.68	3505.00
212.15	3530.00
212.63	3631.00
213.11	3559.00
213.58	3541.00
214.06	3663.00
214.53	3597.00
215.01	3603.00
215.49	3581.00
215.96	3607.00
216.44	3574.00
216.92	3599.00
217.39	3538.00
217.87	3560.00
218.35	3562.00
218.82	3487.00
219.30	3532.00
219.77	3534.00
220.25	3564.00
220.73	3666.00
221.20	3525.00
221.68	3574.00
222.15	3493.00
222.63	3611.00
223.11	3532.00
223.58	3602.00
224.06	3550.00
224.53	3571.00
225.01	3508.00
225.49	3549.00
225.96	3513.00
226.44	3549.00
226.91	3602.00
227.39	3517.00
227.87	3586.00
228.34	3605.00
228.82	3574.00
229.29	3548.00
229.77	3534.00
230.24	3524.00
230.72	3584.00
231.20	3594.00
231.67	3547.00
232.15	3554.00
232.62	3523.00
233.10	3545.00
233.57	3598.00
234.05	3722.00
234.53	3602.00
235.00	3557.00
235.48	3544.00
235.95	3583.00
236.43	3596.00
236.90	3608.00
237.38	3570.00
237.85	3562.00
238.33	3554.00
238.80	3559.00
239.28	3543.00
239.75	3495.00
240.23	3592.00
240.71	3612.00
241.18	3599.00
241.66	3580.00
242.13	3601.00
242.61	3616.00
243.08	3542.00
243.56	3557.00
244.03	3597.00
244.51	3654.00
244.98	3578.00
245.46	3605.00
245.93	5356.00
246.41	3479.00
246.88	3569.00
247.36	3593.00
247.83	3565.00
248.31	3637.00
248.78	3504.00
249.26	3574.00
249.73	3637.00
250.21	3574.00
250.68	3631.00
251.16	3551.00
251.63	3653.00
252.10	3593.00
252.58	3529.00
253.05	3609.00
253.53	3585.00
254.00	3555.00
254.48	3580.00
254.95	3619.00
255.43	3623.00
255.90	3553.00
256.38	3629.00
256.85	3568.00
257.33	3628.00
257.80	3736.00
258.27	3544.00
258.75	3581.00
259.22	3580.00
259.70	3573.00
260.17	3653.00
260.65	3589.00
261.12	3592.00
261.59	3655.00
262.07	3565.00
262.54	3621.00
263.02	3608.00
263.49	3562.00
263.97	3606.00
264.44	3613.00
264.91	3552.00
265.39	3639.00
265.86	3577.00
266.34	3647.00
266.81	3565.00
267.28	3587.00
267.76	3579.00
268.23	3602.00
268.71	3516.00
269.18	3568.00
269.65	3533.00
270.13	3601.00
270.60	3623.00
271.08	3550.00
271.55	3549.00
272.02	3536.00
272.50	3566.00
272.97	3518.00
273.44	3589.00
273.92	3733.00
274.39	3551.00
274.87	3617.00
275.34	3566.00
275.81	3557.00
276.29	3583.00
276.76	3591.00
277.23	3459.00
277.71	3530.00
278.18	3465.00
278.65	3675.00
279.13	3511.00
279.60	3526.00
280.07	3873.00
280.55	3765.00
281.02	3897.00
281.50	3643.00
281.97	3736.00
282.44	3635.00
282.91	3627.00
283.39	3627.00
283.86	3606.00
284.33	3552.00
284.81	3626.00
285.28	3598.00
285.75	3588.00
286.23	3647.00
286.70	3603.00
287.17	3622.00
287.65	3707.00
288.12	3583.00
288.59	3635.00
289.07	3540.00
289.54	3707.00
290.01	3558.00
290.48	3583.00
290.96	3593.00
291.43	3623.00
291.90	3687.00
292.38	3558.00
292.85	3649.00
293.32	3557.00
293.79	3626.00
294.27	3621.00
294.74	3545.00
295.21	3615.00
295.69	3605.00
296.16	3693.00
296.63	3701.00
297.10	3674.00
297.58	3641.00
298.05	3665.00
298.52	3590.00
298.99	3683.00
299.47	3622.00
299.94	3595.00
300.41	3571.00
300.88	3629.00
301.36	3616.00
301.83	3638.00
302.30	3519.00
302.77	3637.00
303.25	3677.00
303.72	3584.00
304.19	3583.00
304.66	3519.00
305.13	3629.00
305.61	3609.00
306.08	3634.00
306.55	3640.00
307.02	3591.00
307.49	3588.00
307.97	3603.00
308.44	3621.00
308.91	3630.00
309.38	3643.00
309.86	3606.00
310.33	3600.00
310.80	3611.00
311.27	3588.00
311.74	3681.00
312.21	3621.00
312.69	3683.00
313.16	3589.00
313.63	3629.00
314.10	3591.00
314.57	3576.00
315.05	3581.00
315.52	3653.00
315.99	3639.00
316.46	3626.00
316.93	3649.00
317.40	3631.00
317.88	3717.00
318.35	3579.00
318.82	3617.00
319.29	3554.00
319.76	3667.00
320.23	3701.00
320.70	3642.00
321.18	3608.00
321.65	3563.00
322.12	3582.00
322.59	3750.00
323.06	3587.00
323.53	3752.00
324.00	3556.00
324.48	3677.00
324.95	3611.00
325.42	3641.00
325.89	3651.00
326.36	3664.00
326.83	3666.00
327.30	3670.00
327.77	3612.00
328.24	3669.00
328.72	3597.00
329.19	3657.00
329.66	3637.00
330.13	3651.00
330.60	3622.00
331.07	3683.00
331.54	3737.00
332.01	3605.00
332.48	3756.00
332.95	3641.00
333.43	3677.00
333.90	3687.00
334.37	3701.00
334.84	3699.00
335.31	3803.00
335.78	3621.00
336.25	3661.00
336.72	3641.00
337.19	3604.00
337.66	3593.00
338.13	3570.00
338.60	3683.00
339.07	3635.00
339.54	3547.00
340.01	3591.00
340.49	3596.00
340.96	3634.00
341.43	3658.00
341.90	3564.00
342.37	3623.00
342.84	3649.00
343.31	3600.00
343.78	3576.00
344.25	3588.00
344.72	3567.00
345.19	3572.00
345.66	3630.00
346.13	3567.00
346.60	3549.00
347.07	3640.00
347.54	3587.00
348.01	3659.00
348.48	3629.00
348.95	3494.00
349.42	3592.00
349.89	3591.00
350.36	3578.00
350.83	3526.00
351.30	3622.00
351.77	3655.00
352.24	3601.00
352.71	3595.00
353.18	3592.00
353.65	3594.00
354.12	3584.00
354.59	3606.00
355.06	3591.00
355.53	3663.00
356.00	3559.00
356.47	3707.00
356.94	3555.00
357.41	3755.00
357.88	3595.00
358.35	3588.00
358.82	3569.00
359.28	3581.00
359.75	3562.00
360.22	3629.00
360.69	3671.00
361.16	3602.00
361.63	3590.00
362.10	3613.00
362.57	3592.00
363.04	3581.00
363.51	3731.00
363.98	3604.00
364.45	3612.00
364.92	3651.00
365.39	3593.00
365.86	3598.00
366.32	3607.00
366.79	3594.00
367.26	4587.00
367.73	3942.00
368.20	3627.00
368.67	3649.00
369.14	3588.00
369.61	3637.00
370.08	3636.00
370.55	3591.00
371.02	4485.00
371.48	3603.00
371.95	3609.00
372.42	3557.00
372.89	3571.00
373.36	3594.00
373.83	3566.00
374.30	3622.00
374.77	3594.00
375.23	3534.00
375.70	3699.00
376.17	3630.00
376.64	3589.00
377.11	3584.00
377.58	3652.00
378.05	3607.00
378.51	3626.00
378.98	3592.00
379.45	3573.00
379.92	3669.00
380.39	3731.00
380.86	3663.00
381.33	3697.00
381.79	3699.00
382.26	3559.00
382.73	3620.00
383.20	3632.00
383.67	3639.00
384.14	3627.00
384.60	3854.00
385.07	3597.00
385.54	3596.00
386.01	3608.00
386.48	3729.00
386.94	3592.00
387.41	3540.00
387.88	3639.00
388.35	3671.00
388.82	3669.00
389.28	3621.00
389.75	3639.00
390.22	3673.00
390.69	3651.00
391.16	3645.00
391.62	3626.00
392.09	3615.00
392.56	3609.00
393.03	3642.00
393.50	3733.00
393.96	3607.00
394.43	3647.00
394.90	3595.00
395.37	3671.00
395.83	3844.00
396.30	3587.00
396.77	3664.00
397.24	3659.00
397.70	3571.00
398.17	3614.00
398.64	3615.00
399.11	3625.00
399.57	3668.00
400.04	3601.00
400.51	3658.00
400.98	3618.00
401.44	3689.00
401.91	3617.00
402.38	3651.00
402.84	3619.00
403.31	3687.00
403.78	3679.00
404.25	3756.00
404.71	3725.00
405.18	3711.00
405.65	3628.00
406.12	3708.00
406.58	3664.00
407.05	3773.00
407.52	3661.00
407.98	4213.00
408.45	3719.00
408.92	3653.00
409.38	3778.00
409.85	3647.00
410.32	3777.00
410.78	3693.00
411.25	3804.00
411.72	3733.00
412.18	3663.00
412.65	3759.00
413.12	3751.00
413.59	3797.00
414.05	3780.00
414.52	3855.00
414.98	3828.00
415.45	3872.00
415.92	3859.00
416.38	3839.00
416.85	3985.00
417.32	3787.00
417.78	3847.00
418.25	3900.00
418.72	3850.00
419.18	3944.00
419.65	3831.00
420.12	3919.00
420.58	3892.00
421.05	3960.00
421.51	3938.00
421.98	3967.00
422.45	3953.00
422.91	3935.00
423.38	4033.00
423.85	4024.00
424.31	3999.00
424.78	4066.00
425.24	4015.00
425.71	4107.00
426.18	4044.00
426.64	4077.00
427.11	4078.00
427.57	4144.00
428.04	4029.00
428.51	4103.00
428.97	4078.00
429.44	4053.00
429.90	4030.00
430.37	4164.00
430.83	4025.00
431.30	4129.00
431.77	4252.00
432.23	4226.00
432.70	4187.00
433.16	4192.00
433.63	4147.00
434.09	4224.00
434.56	4246.00
435.03	4259.00
435.49	4315.00
435.96	4295.00
436.42	4317.00
436.89	4342.00
437.35	4336.00
437.82	4322.00
438.28	4274.00
438.75	4301.00
439.21	4525.00
439.68	4362.00
440.14	4408.00
440.61	4422.00
441.07	4398.00
441.54	4468.00
442.00	4622.00
442.47	4465.00
442.94	4520.00
443.40	4538.00
443.87	4515.00
444.33	4641.00
444.80	4547.00
445.26	4522.00
445.73	4563.00
446.19	4615.00
446.65	4594.00
447.12	4707.00
447.58	4661.00
448.05	4691.00
448.51	4685.00
448.98	4749.00
449.44	4783.00
449.91	4735.00
450.37	4808.00
450.84	4836.00
451.30	4867.00
451.77	4877.00
452.23	4755.00
452.70	4875.00
453.16	4807.00
453.62	4910.00
454.09	4840.00
454.55	4903.00
455.02	4830.00
455.48	4974.00
455.95	5020.00
456.41	4961.00
456.88	5037.00
457.34	5047.00
457.80	4904.00
458.27	4876.00
458.73	4947.00
459.20	4929.00
459.66	5041.00
460.13	4980.00
460.59	4921.00
461.05	5068.00
461.52	5017.00
461.98	5085.00
462.45	4951.00
462.91	5045.00
463.37	4949.00
463.84	4965.00
464.30	4971.00
464.76	4912.00
465.23	4958.00
465.69	5047.00
466.16	5019.00
466.62	4997.00
467.08	4992.00
467.55	4963.00
468.01	5080.00
468.48	5022.00
468.94	5003.00
469.40	4964.00
469.87	4967.00
470.33	5025.00
470.79	5031.00
471.26	5090.00
471.72	5073.00
472.18	5088.00
472.65	5073.00
473.11	5107.00
473.57	5145.00
474.04	5085.00
474.50	5116.00
474.96	5056.00
475.43	5124.00
475.89	5191.00
476.35	5105.00
476.82	5161.00
477.28	5169.00
477.74	5294.00
478.21	5192.00
478.67	5271.00
479.13	5234.00
479.59	5341.00
480.06	5228.00
480.52	5255.00
480.98	5211.00
481.45	5296.00
481.91	5242.00
482.37	5280.00
482.84	5269.00
483.30	5185.00
483.76	5244.00
484.22	5394.00
484.69	5205.00
485.15	5081.00
485.61	4916.00
486.07	4989.00
486.54	5039.00
487.00	5215.00
487.46	5137.00
487.92	5207.00
488.39	5195.00
488.85	5295.00
489.31	5444.00
489.77	5386.00
490.24	5346.00
490.70	5398.00
491.16	5281.00
491.62	5306.00
492.09	5373.00
492.55	5489.00
493.01	5492.00
493.47	5454.00
493.94	5549.00
494.40	5607.00
494.86	5660.00
495.32	5648.00
495.78	5681.00
496.25	5679.00
496.71	5733.00
497.17	5884.00
497.63	5782.00
498.09	5745.00
498.56	5831.00
499.02	5841.00
499.48	5975.00
499.94	5898.00
500.40	5889.00
500.87	5977.00
501.33	5869.00
501.79	6064.00
502.25	6174.00
502.71	6554.00
503.17	6257.00
503.64	6255.00
504.10	6351.00
504.56	6473.00
505.02	6588.00
505.48	6799.00
505.94	6899.00
506.40	6878.00
506.87	6895.00
507.33	6966.00
507.79	7063.00
508.25	7182.00
508.71	7381.00
509.17	7395.00
509.63	7489.00
510.10	7642.00
510.56	7812.00
511.02	7987.00
511.48	8167.00
511.94	8153.00
512.40	8212.00
512.86	8240.00
513.32	8521.00
513.78	8478.00
514.25	8715.00
514.71	9570.00
515.17	9022.00
515.63	9272.00
516.09	9202.00
516.55	8961.00
517.01	9149.00
517.47	9569.00
517.93	9605.00
518.39	10182.00
518.85	10447.00
519.32	10767.00
519.78	11114.00
520.24	11219.00
520.70	11543.00
521.16	12006.00
521.62	12192.00
522.08	12339.00
522.54	12333.00
523.00	12780.00
523.46	13314.00
523.92	13571.00
524.38	13858.00
524.84	13849.00
525.30	14204.00
525.76	14149.00
526.22	13657.00
526.68	13657.00
527.14	14242.00
527.60	14808.00
528.06	15293.00
528.52	15875.00
528.98	16020.00
529.44	16043.00
529.90	16243.00
530.36	16733.00
530.82	16856.00
531.28	17119.00
531.74	16858.00
532.20	16464.00
532.66	16487.00
533.12	17083.00
533.58	17436.00
534.04	17533.00
534.50	17904.00
534.96	18139.00
535.42	18699.00
535.88	18512.00
536.34	18298.00
536.80	18060.00
537.26	18702.00
537.72	18906.00
538.18	18860.00
538.64	19029.00
539.10	18838.00
539.56	18870.00
540.02	18509.00
540.48	18648.00
540.94	18937.00
541.40	19271.00
541.86	19564.00
542.32	19400.00
542.78	19616.00
543.24	19777.00
543.69	19997.00
544.15	20214.00
544.61	20155.00
545.07	20174.00
545.53	20347.00
545.99	20481.00
546.45	20593.00
546.91	20654.00
547.37	20406.00
547.83	20514.00
548.29	20835.00
548.74	20929.00
549.20	21134.00
549.66	21228.00
550.12	21015.00
550.58	21130.00
551.04	21417.00
551.50	21516.00
551.96	21744.00
552.42	21408.00
552.87	21425.00
553.33	21530.00
553.79	21745.00
554.25	21855.00
554.71	22052.00
555.17	21991.00
555.63	21896.00
556.08	21712.00
556.54	21466.00
557.00	21437.00
557.46	21501.00
557.92	21576.00
558.38	20890.00
558.83	20770.00
559.29	20934.00
559.75	20979.00
560.21	21101.00
560.67	21569.00
561.13	21308.00
561.58	20903.00
562.04	21109.00
562.50	21033.00
562.96	21144.00
563.42	20976.00
563.87	20762.00
564.33	20711.00
564.79	20699.00
565.25	20240.00
565.71	19883.00
566.16	20117.00
566.62	20100.00
567.08	20188.00
567.54	20127.00
568.00	19760.00
568.45	19400.00
568.91	19362.00
569.37	19259.00
569.83	19100.00
570.28	18790.00
570.74	18477.00
571.20	18421.00
571.66	18581.00
572.11	18671.00
572.57	18664.00
573.03	18437.00
573.49	18221.00
573.94	18279.00
574.40	18106.00
574.86	17789.00
575.32	17461.00
575.77	17418.00
576.23	17348.00
576.69	17375.00
577.15	17335.00
577.60	17016.00
578.06	16765.00
578.52	16736.00
578.97	16819.00
579.43	16640.00
579.89	16758.00
580.34	16785.00
580.80	16757.00
581.26	16718.00
581.72	16724.00
582.17	16795.00
582.63	16547.00
583.09	16596.00
583.54	16499.00
584.00	16460.00
584.46	16360.00
584.91	16122.00
585.37	16056.00
585.83	15746.00
586.28	15792.00
586.74	15878.00
587.20	15854.00
587.65	15747.00
588.11	15215.00
588.57	14807.00
589.02	14051.00
589.48	14168.00
589.94	14800.00
590.39	15034.00
590.85	15119.00
591.30	15148.00
591.76	15043.00
592.22	14912.00
592.67	15022.00
593.13	15060.00
593.59	14901.00
594.04	14872.00
594.50	14737.00
594.95	14840.00
595.41	14846.00
595.87	14899.00
596.32	14975.00
596.78	14912.00
597.23	14710.00
597.69	14719.00
598.15	14691.00
598.60	14645.00
599.06	14873.00
599.51	14792.00
599.97	14715.00
600.43	14632.00
600.88	14585.00
601.34	14517.00
601.79	14323.00
602.25	14636.00
602.70	14509.00
603.16	14677.00
603.61	14580.00
604.07	14567.00
604.53	14651.00
604.98	14511.00
605.44	14350.00
605.89	14311.00
606.35	14041.00
606.80	14161.00
607.26	14091.00
607.71	13958.00
608.17	13838.00
608.62	13717.00
609.08	13841.00
609.53	13800.00
609.99	13415.00
610.44	13379.00
610.90	13376.00
611.35	13367.00
611.81	13331.00
612.26	13039.00
612.72	13117.00
613.17	13098.00
613.63	12690.00
614.08	12669.00
614.54	12823.00
614.99	12701.00
615.45	12517.00
615.90	12339.00
616.36	12253.00
616.81	12260.00
617.27	12330.00
617.72	12450.00
618.18	12409.00
618.63	12361.00
619.09	12217.00
619.54	12279.00
619.99	12307.00
620.45	12416.00
620.90	12309.00
621.36	12088.00
621.81	12127.00
622.27	12172.00
622.72	12021.00
623.18	11897.00
623.63	11942.00
624.08	11985.00
624.54	11807.00
624.99	11748.00
625.45	11600.00
625.90	11696.00
626.35	11823.00
626.81	11888.00
627.26	11729.00
627.72	11489.00
628.17	11581.00
628.62	11700.00
629.08	11716.00
629.53	11620.00
629.99	11575.00
630.44	11656.00
630.89	11823.00
631.35	11533.00
631.80	11538.00
632.26	11682.00
632.71	11715.00
633.16	11706.00
633.62	11599.00
634.07	11559.00
634.52	11561.00
634.98	11574.00
635.43	11503.00
635.88	11336.00
636.34	11403.00
636.79	11488.00
637.24	11422.00
637.70	11533.00
638.15	11326.00
638.60	11150.00
639.06	11146.00
639.51	10926.00
639.96	10785.00
640.42	10823.00
640.87	10769.00
641.32	10585.00
641.78	10532.00
642.23	10329.00
642.68	10392.00
643.14	10236.00
643.59	10277.00
644.04	10033.00
644.49	9918.00
644.95	9812.00
645.40	9709.00
645.85	9606.00
646.31	9436.00
646.76	9424.00
647.21	9331.00
647.66	9192.00
648.12	9179.00
648.57	8989.00
649.02	9023.00
649.47	8874.00
649.93	9037.00
650.38	8894.00
650.83	8975.00
651.28	8849.00
651.74	8696.00
652.19	8636.00
652.64	8747.00
653.09	8667.00
653.55	8732.00
654.00	8645.00
654.45	8552.00
654.90	8385.00
655.35	8167.00
655.81	7805.00
656.26	7399.00
656.71	7640.00
657.16	7954.00
657.62	7982.00
658.07	8067.00
658.52	8006.00
658.97	7890.00
659.42	7940.00
659.88	7793.00
660.33	7769.00
660.78	7701.00
661.23	7659.00
661.68	7601.00
662.13	7463.00
662.59	7381.00
663.04	7237.00
663.49	7157.00
663.94	7118.00
664.39	7097.00
664.84	6954.00
665.30	7005.00
665.75	6834.00
666.20	6818.00
666.65	6715.00
667.10	6827.00
667.55	6749.00
668.00	6547.00
668.46	6646.00
668.91	6563.00
669.36	6668.00
669.81	6383.00
670.26	6385.00
670.71	6442.00
671.16	6350.00
671.61	6426.00
672.06	6387.00
672.52	6288.00
672.97	6307.00
673.42	6299.00
673.87	6369.00
674.32	6255.00
674.77	6206.00
675.22	6115.00
675.67	6171.00
676.12	6191.00
676.57	6178.00
677.02	6146.00
677.47	6117.00
677.93	6295.00
678.38	6161.00
678.83	6144.00
679.28	6222.00
679.73	6159.00
680.18	6217.00
680.63	6201.00
681.08	6220.00
681.53	6206.00
681.98	6308.00
682.43	6369.00
682.88	6436.00
683.33	6541.00
683.78	6478.00
684.23	6673.00
684.68	6731.00
685.13	6881.00
685.58	6897.00
686.03	6956.00
686.48	6831.00
686.93	6521.00
687.38	6569.00
687.83	7077.00
688.28	7458.00
688.73	7682.00
689.18	7853.00
689.63	8021.00
690.08	8547.00
690.53	8782.00
690.98	9206.00
691.43	9774.00
691.88	10200.00
692.33	10633.00
692.78	11037.00
693.23	11550.00
693.68	12053.00
694.13	12368.00
694.58	13097.00
695.03	13890.00
695.48	14364.00
695.93	15099.00
696.38	16016.00
696.83	16553.00
697.28	17203.00
697.72	17554.00
698.17	18275.00
698.62	18818.00
699.07	19522.00
699.52	20017.00
699.97	20588.00
700.42	21277.00
700.87	21879.00
701.32	22669.00
701.77	22955.00
702.22	23523.00
702.67	24200.00
703.11	25158.00
703.56	26063.00
704.01	26523.00
704.46	27588.00
704.91	28148.00
705.36	28652.00
705.81	29188.00
706.26	29551.00
706.70	30280.00
707.15	30944.00
707.60	31757.00
708.05	32340.00
708.50	32686.00
708.95	33012.00
709.40	33772.00
709.84	34020.00
710.29	34740.00
710.74	34967.00
711.19	35470.00
711.64	35995.00
712.09	36488.00
712.53	36927.00
712.98	37402.00
713.43	37640.00
713.88	38105.00
714.33	38173.00
714.78	38156.00
715.22	38670.00
715.67	38901.00
716.12	38316.00
716.57	37065.00
717.02	35739.00
717.46	34649.00
717.91	34708.00
718.36	33808.00
718.81	33532.00
719.26	33749.00
719.70	34283.00
720.15	34813.00
720.60	36379.00
721.05	39011.00
721.49	40700.00
721.94	41500.00
722.39	41472.00
722.84	40586.00
723.28	39094.00
723.73	38756.00
724.18	38745.00
724.63	39571.00
725.07	39651.00
725.52	40209.00
725.97	40773.00
726.42	41317.00
726.86	42010.00
727.31	41280.00
727.76	41260.00
728.21	42192.00
728.65	42294.00
729.10	41840.00
729.55	43130.00
729.99	43900.00
730.44	44046.00
730.89	44636.00
731.33	45429.00
731.78	46591.00
732.23	47697.00
732.68	48252.00
733.12	49010.00
733.57	49949.00
734.02	50736.00
734.46	51205.00
734.91	51118.00
735.36	51403.00
735.80	51511.00
736.25	51699.00
736.70	52047.00
737.14	52824.00
737.59	53048.00
738.04	52784.00
738.48	52395.00
738.93	52599.00
739.37	53214.00
739.82	53861.00
740.27	54182.00
740.71	54050.00
741.16	53886.00
741.61	54392.00
742.05	54395.00
742.50	54703.00
742.94	55052.00
743.39	55563.00
743.84	55462.00
744.28	55215.00
744.73	55531.00
745.18	55964.00
745.62	56450.00
746.07	56270.00
746.51	56349.00
746.96	55985.00
747.40	55946.00
747.85	55886.00
748.30	55815.00
748.74	55531.00
749.19	55591.00
749.63	55562.00
750.08	55671.00
750.52	55585.00
750.97	55487.00
751.42	55540.00
751.86	55718.00
752.31	55272.00
752.75	55155.00
753.20	54888.00
753.64	55254.00
754.09	55233.00
754.53	55585.00
754.98	55459.00
755.42	55419.00
755.87	55319.00
756.31	55035.00
756.76	54565.00
757.20	54096.00
757.65	53933.00
758.09	53062.00
758.54	51143.00
758.98	45927.00
759.43	36160.00
759.87	25600.00
760.32	19241.00
760.76	18931.00
761.21	23357.00
761.65	28850.00
762.10	30543.00
762.54	28823.00
762.99	27377.00
763.43	27979.00
763.88	29911.00
764.32	32521.00
764.77	35257.00
765.21	38164.00
765.66	40207.00
766.10	42656.00
766.54	44605.00
766.99	46740.00
767.43	48353.00
767.88	49564.00
768.32	50543.00
768.77	51497.00
769.21	52275.00
769.66	52762.00
770.10	53517.00
770.54	53702.00
770.99	53807.00
771.43	53883.00
771.88	53467.00
772.32	53473.00
772.76	53456.00
773.21	53534.00
773.65	53463.00
774.10	52998.00
774.54	52866.00
774.98	53111.00
775.43	53424.00
775.87	54107.00
776.31	54329.00
776.76	54114.00
777.20	53887.00
777.65	53404.00
778.09	53268.00
778.53	52864.00
778.98	52791.00
779.42	52688.00
779.86	52763.00
780.31	52475.00
780.75	52754.00
781.19	53125.00
781.64	53148.00
782.08	53317.00
782.52	52907.00
782.97	52656.00
783.41	52052.00
783.85	51734.00
784.30	51410.00
784.74	51462.00
785.18	51068.00
785.63	51381.00
786.07	51236.00
786.51	51548.00
786.95	51458.00
787.40	51303.00
787.84	51049.00
788.28	50747.00
788.73	50568.00
789.17	49833.00
789.61	49265.00
790.05	49135.00
790.50	48757.00
790.94	48700.00
791.38	48703.00
791.82	48564.00
792.27	48768.00
792.71	48909.00
793.15	49229.00
793.59	48976.00
794.04	48498.00
794.48	48475.00
794.92	47688.00
795.36	47532.00
795.81	47235.00
796.25	46981.00
796.69	47424.00
797.13	48016.00
797.57	48173.00
798.02	48507.00
798.46	48639.00
798.90	48205.00
799.34	47900.00
799.79	47364.00
800.23	46520.00
800.67	46248.00
801.11	45939.00
801.55	46185.00
801.99	45944.00
802.44	45994.00
802.88	46278.00
803.32	46693.00
803.76	46608.00
804.20	47040.00
804.64	46833.00
805.09	47041.00
805.53	46994.00
805.97	46471.00
806.41	45791.00
806.85	45339.00
807.29	45145.00
807.74	44901.00
808.18	44881.00
808.62	44790.00
809.06	44699.00
809.50	44933.00
809.94	44989.00
810.38	45172.00
810.82	45069.00
811.27	44892.00
811.71	43896.00
812.15	43238.00
812.59	41908.00
813.03	40819.00
813.47	39443.00
813.91	38437.00
814.35	37787.00
814.79	37707.00
815.23	37221.00
815.67	36565.00
816.12	37017.00
816.56	36709.00
817.00	37106.00
817.44	37570.00
817.88	37239.00
818.32	36801.00
818.76	37048.00
819.20	36816.00
819.64	37344.00
820.08	37711.00
820.52	38689.00
820.96	39488.00
821.40	38881.00
821.84	37475.00
822.28	35613.00
822.72	35173.00
823.16	34935.00
823.60	36931.00
824.04	39491.00
824.48	39917.00
824.92	40148.00
825.36	40101.00
825.80	39076.00
826.24	38952.00
826.68	38729.00
827.12	38559.00
827.56	37781.00
828.00	37579.00
828.44	38141.00
828.88	38520.00
829.32	39116.00
829.76	39225.00
830.20	39952.00
830.64	39045.00
831.08	39120.00
831.52	38183.00
831.96	38007.00
832.40	37366.00
832.84	37934.00
833.28	38146.00
833.72	38802.00
834.16	39660.00
834.60	40725.00
835.04	41098.00
835.48	41317.00
835.91	41505.00
836.35	41323.00
836.79	40956.00
837.23	40718.00
837.67	40266.00
838.11	39966.00
838.55	40061.00
838.99	40001.00
839.43	40404.00
839.87	40735.00
840.30	41181.00
840.74	41966.00
841.18	42380.00
841.62	42612.00
842.06	42479.00
842.50	42328.00
842.94	41795.00
843.38	41388.00
843.81	40515.00
844.25	40216.00
844.69	39859.00
845.13	39982.00
845.57	39921.00
846.01	40120.00
846.45	40446.00
846.88	40797.00
847.32	41527.00
847.76	42046.00
848.20	42087.00
848.64	41399.00
849.08	40706.00
849.51	40629.00
849.95	39768.00
850.39	39869.00
850.83	40448.00
851.27	39979.00
851.70	39548.00
852.14	39303.00
852.58	38469.00
853.02	37199.00
853.46	36201.00
853.89	36177.00
854.33	35846.00
854.77	37615.00
855.21	39883.00
855.65	40972.00
856.08	41569.00
856.52	41687.00
856.96	41625.00
857.40	40679.00
857.83	40154.00
858.27	39225.00
858.71	38784.00
859.15	38560.00
859.58	38925.00
860.02	39185.00
860.46	39740.00
860.89	40529.00
861.33	40873.00
861.77	41137.00
862.21	41503.00
862.64	41681.00
863.08	41382.00
863.52	41084.00
863.95	40353.00
864.39	39652.00
864.83	38053.00
865.27	36492.00
865.70	36237.00
866.14	35465.00
866.58	35490.00
867.01	37235.00
867.45	38596.00
867.89	39377.00
868.32	40326.00
868.76	40710.00
869.20	40777.00
869.63	41019.00
870.07	40072.00
870.51	39267.00
870.94	38338.00
871.38	37617.00
871.82	37039.00
872.25	36926.00
872.69	36529.00
873.13	37019.00
873.56	37560.00
874.00	37808.00
874.43	38274.00
874.87	39320.00
875.31	39413.00
875.74	39562.00
876.18	40023.00
876.61	39851.00
877.05	39449.00
877.49	38911.00
877.92	38327.00
878.36	37631.00
878.79	37159.00
879.23	36242.00
879.67	35707.00
880.10	35871.00
880.54	35735.00
880.97	36256.00
881.41	37348.00
881.84	38193.00
882.28	38880.00
882.72	39511.00
883.15	39988.00
883.59	39977.00
884.02	39812.00
884.46	39605.00
884.89	38838.00
885.33	38102.00
885.76	37029.00
886.20	36262.00
886.63	35777.00
887.07	35373.00
887.50	35638.00
887.94	35839.00
888.37	36147.00
888.81	36738.00
889.24	36876.00
889.68	37318.00
890.11	37832.00
890.55	38357.00
890.98	38674.00
891.42	38576.00
891.85	38118.00
892.29	37937.00
892.72	36868.00
893.16	35767.00
893.59	34950.00
894.03	33830.00
894.46	32688.00
894.90	31424.00
895.33	30236.00
895.77	30309.00
896.20	30122.00
896.63	30125.00
897.07	30289.00
897.50	30046.00
897.94	30277.00
898.37	31341.00
898.81	29551.00
899.24	29422.00
899.68	30982.00
900.11	30173.00
900.54	29513.00
900.98	28974.00
901.41	28705.00
901.85	28979.00
902.28	29200.00
902.71	29646.00
903.15	30433.00
903.58	31710.00
904.02	31613.00
904.45	31559.00
904.88	31198.00
905.32	31230.00
905.75	30889.00
906.18	30104.00
906.62	30093.00
907.05	29257.00
907.48	29622.00
907.92	29224.00
908.35	29188.00
908.79	28594.00
909.22	28417.00
909.65	28055.00
910.09	27976.00
910.52	27351.00
910.95	27882.00
911.38	27854.00
911.82	26729.00
912.25	27537.00
912.68	27980.00
913.12	27794.00
913.55	27948.00
913.98	28925.00
914.42	30117.00
914.85	30328.00
915.28	28899.00
915.72	28651.00
916.15	28279.00
916.58	28323.00
917.01	27427.00
917.45	26807.00
917.88	27363.00
918.31	27997.00
918.74	29001.00
919.18	29273.00
919.61	29075.00
920.04	30080.00
920.47	30035.00
920.91	30581.00
921.34	30239.00
921.77	30583.00
922.20	31041.00
922.64	30879.00
923.07	30571.00
923.50	30175.00
923.93	29986.00
924.37	29364.00
924.80	28967.00
925.23	28595.00
925.66	27469.00
926.09	26270.00
926.53	25753.00
926.96	24663.00
927.39	23745.00
927.82	22565.00
928.25	21478.00
928.69	21210.00
929.12	20857.00
929.55	19855.00
929.98	18892.00
930.41	17957.00
930.84	16836.00
931.28	15786.00
931.71	14452.00
932.14	13035.00
932.57	12482.00
933.00	11937.00
933.43	11419.00
933.86	10747.00
934.30	10252.00
934.73	11591.00
935.16	10984.00
935.59	10273.00
936.02	10902.00
936.45	10663.00
936.88	10775.00
937.31	11765.00
937.75	12148.00
938.18	12986.00
938.61	13574.00
939.04	14243.00
939.47	14004.00
939.90	13033.00
940.33	12556.00
940.76	11657.00
941.19	11175.00
941.62	10957.00
942.05	10782.00
942.48	9658.00
942.91	9708.00
943.35	10283.00
943.78	9615.00
944.21	9502.00
944.64	10422.00
945.07	10628.00
945.50	10401.00
945.93	10657.00
946.36	10997.00
946.79	11457.00
947.22	12063.00
947.65	11701.00
948.08	11360.00
948.51	12088.00
948.94	12571.00
949.37	11862.00
949.80	11365.00
950.23	11566.00
950.66	12094.00
951.09	11972.00
951.52	11443.00
951.95	11582.00
952.38	11918.00
952.81	12736.00
953.24	13515.00
953.67	13638.00
954.10	13433.00
954.53	14031.00
954.96	13917.00
955.39	14314.00
955.82	15365.00
956.25	14590.00
956.68	14968.00
957.11	15279.00
957.53	14809.00
957.96	14549.00
958.39	14407.00
958.82	13606.00
959.25	14281.00
959.68	14899.00
960.11	15099.00
960.54	15308.00
960.97	16281.00
961.40	16802.00
961.83	16479.00
962.26	16846.00
962.68	18310.00
963.11	18584.00
963.54	18718.00
963.97	18978.00
964.40	18741.00
964.83	19321.00
965.26	19411.00
965.69	19250.00
966.11	19040.00
966.54	19041.00
966.97	19985.00
967.40	20108.00
967.83	20210.00
968.26	20256.00
968.69	20429.00
969.11	20502.00
969.54	20366.00
969.97	20589.00
970.40	20872.00
970.83	20802.00
971.26	21286.00
971.68	21098.00
972.11	21136.00
972.54	21696.00
972.97	21447.00
973.40	21208.00
973.82	21189.00
974.25	21106.00
974.68	20792.00
975.11	20560.00
975.54	20107.00
975.96	19807.00
976.39	19919.00
976.82	20026.00
977.25	19727.00
977.67	19699.00
978.10	19788.00
978.53	20144.00
978.96	20559.00
979.38	20926.00
979.81	21351.00
980.24	22035.00
980.67	22357.00
981.09	22603.00
981.52	22888.00
981.95	22979.00
982.38	22935.00
982.80	23081.00
983.23	23451.00
983.66	23504.00
984.08	23146.00
984.51	23226.00
984.94	22728.00
985.37	22644.00
985.79	22057.00
986.22	21694.00
986.65	21444.00
987.07	21309.00
987.50	21131.00
987.93	21257.00
988.35	21273.00
988.78	21547.00
989.21	21680.00
989.63	21845.00
990.06	22169.00
990.49	22557.00
990.91	23083.00
991.34	23173.00
991.77	23183.00
992.19	23212.00
992.62	23255.00
993.05	23096.00
993.47	22784.00
993.90	22627.00
994.32	22204.00
994.75	21768.00
995.18	21282.00
995.60	21006.00
996.03	20727.00
996.45	20627.00
996.88	20385.00
997.31	20221.00
997.73	20300.00
998.16	20321.00
998.58	20684.00
999.01	20560.00
999.44	20897.00
999.86	21256.00
1000.29	21284.00
1000.71	21474.00
1001.14	21440.00
1001.56	21482.00
1001.99	21403.00
1002.41	21101.00
1002.84	20515.00
1003.27	20187.00
1003.69	19779.00
1004.12	19236.00
1004.54	18913.00
1004.97	18629.00
1005.39	18459.00
1005.82	18512.00
1006.24	18348.00
1006.67	18205.00
1007.09	18279.00
1007.52	18269.00
1007.94	18244.00
1008.37	18385.00
1008.79	18345.00
1009.22	18319.00
1009.64	18391.00
1010.07	18445.00
1010.49	18619.00
1010.92	18628.00
1011.34	18538.00
1011.77	18584.00
1012.19	18543.00
1012.62	18393.00
1013.04	18097.00
1013.46	17763.00
1013.89	17499.00
1014.31	17099.00
1014.74	16647.00
1015.16	16703.00
1015.59	16430.00
1016.01	16380.00
1016.44	16425.00
1016.86	17571.00
1017.28	16576.00
1017.71	16823.00
1018.13	17067.00
1018.56	17075.00
1018.98	17261.00
1019.40	17300.00
1019.83	17427.00
1020.25	17385.00
1020.68	17556.00
1021.10	17771.00
1021.52	17678.00
1021.95	18055.00
1022.37	17954.00
1022.79	17853.00
1023.22	17657.00
1023.64	17499.00
1024.07	17185.00
1024.49	17162.00
1024.91	16769.00
1025.34	16677.00
1025.76	16569.00
1026.18	16355.00
1026.61	16199.00
1027.03	16276.00
1027.45	16210.00
1027.88	16290.00
1028.30	16461.00
1028.72	16309.00
1029.15	16514.00
1029.57	16668.00
1029.99	16713.00
1030.41	16619.00
1030.84	16618.00
1031.26	16583.00
1031.68	16338.00
1032.11	16285.00
1032.53	16066.00
1032.95	15971.00
1033.37	15644.00
1033.80	15650.00
1034.22	15149.00
1034.64	15039.00
1035.06	14628.00
1035.49	14447.00
1035.91	14359.00
1036.33	14151.00
1036.75	14037.00
1037.18	13825.00
1037.60	13911.00
1038.02	13858.00
1038.44	13952.00
1038.87	13777.00
1039.29	14024.00
1039.71	13907.00
1040.13	13977.00
1040.55	14006.00
1040.98	13954.00
1041.40	13860.00
1041.82	13804.00
1042.24	13612.00
1042.66	13515.00
1043.09	13275.00
1043.51	13236.00
1043.93	12821.00
1044.35	12592.00
1044.77	12499.00
1045.20	12375.00
1045.62	12178.00
1046.04	12000.00
1046.46	11820.00
1046.88	11760.00
1047.30	11776.00
1047.72	11589.00
1048.15	11629.00
1048.57	11461.00
1048.99	11301.00
1049.41	11376.00
1049.83	11340.00
1050.25	11347.00
1050.67	11199.00
1051.09	11246.00
1051.52	11077.00
1051.94	11016.00
1052.36	11125.00
1052.78	10893.00
1053.20	11017.00
1053.62	10829.00
1054.04	10784.00
1054.46	10695.00
1054.88	10552.00
1055.30	10377.00
1055.72	10274.00
1056.14	10235.00
1056.57	10275.00
1056.99	9871.00
1057.41	9853.00
1057.83	9709.00
1058.25	9487.00
1058.67	9413.00
1059.09	9335.00
1059.51	9303.00
1059.93	9195.00
1060.35	9082.00
1060.77	9121.00
1061.19	9175.00
1061.61	8995.00
1062.03	8874.00
1062.45	8817.00
1062.87	8807.00
1063.29	8858.00
1063.71	8728.00
1064.13	8697.00
1064.55	8578.00
1064.97	8653.00
1065.39	8592.00
1065.81	8493.00
1066.23	8448.00
1066.65	8320.00
1067.07	8347.00
1067.49	8231.00
1067.91	8012.00
1068.33	8025.00
1068.75	7995.00
1069.17	8031.00
1069.59	7850.00
1070.00	7712.00
1070.42	7735.00
1070.84	7590.00
1071.26	7466.00
1071.68	7509.00
1072.10	7554.00
1072.52	7427.00
1072.94	7325.00
1073.36	7377.00
1073.78	7271.00
1074.20	7435.00
1074.62	7335.00
1075.03	7269.00
1075.45	7299.00
1075.87	7288.00
1076.29	7337.00
1076.71	7255.00
1077.13	7213.00
1077.55	7052.00
1077.97	7033.00
1078.38	6955.00
1078.80	6943.00
1079.22	6937.00
1079.64	6726.00
1080.06	6615.00
1080.48	6663.00
1080.89	6584.00
1081.31	6447.00
1081.73	6430.00
1082.15	6381.00
1082.57	6421.00
1082.99	6360.00
1083.40	6267.00
1083.82	6331.00
1084.24	6195.00
1084.66	6202.00
1085.08	6177.00
1085.49	6108.00
1085.91	6111.00
1086.33	7343.00
1086.75	6154.00
1087.17	6145.00
1087.58	6046.00
1088.00	5999.00
1088.42	6055.00
1088.84	5958.00
1089.25	5904.00
1089.67	5889.00
1090.09	5751.00
1090.51	5723.00
1090.92	5761.00
1091.34	5595.00
1091.76	5581.00
1092.18	5521.00
1092.59	5490.00
1093.01	5387.00
1093.43	5299.00
1093.84	5298.00
1094.26	5252.00
1094.68	5311.00
1095.10	5165.00
1095.51	5193.00
1095.93	5114.00
1096.35	5202.00
1096.76	5148.00
1097.18	5107.00
1097.60	5035.00
1098.01	5032.00
1098.43	4963.00
1098.85	4944.00
1099.26	4931.00
1099.68	4808.00
1100.10	4817.00
1100.51	4714.00
1100.93	4777.00
1101.35	4669.00
1101.76	4587.00
1102.18	5117.00
1102.60	4607.00
1103.01	4489.00
1103.43	4578.00
1103.84	4537.00
1104.26	4506.00
1104.68	4472.00
1105.09	4400.00
1105.51	4388.00
1105.92	4477.00
1106.34	4290.00
1106.76	4367.00
1107.17	4294.00
1107.59	4261.00
1108.00	4135.00
1108.42	4138.00
1108.83	4054.00
1109.25	4065.00
1109.67	4047.00
1110.08	4043.00
1110.50	3994.00
1110.91	3935.00
1111.33	3911.00
1111.74	3875.00
1112.16	3863.00
1112.57	3832.00
1112.99	3767.00
1113.41	3778.00
1113.82	3705.00
1114.24	3671.00
1114.65	3589.00
1115.07	3456.00
1115.48	3332.00
1115.90	2188.00
1116.31	2212.00
1116.73	2216.00
1117.14	2214.00
>>>>>End Processed Spectral Data<<<<<
