SpectraSuite Data File
++++++++++++++++++++++++++++++++++++
Date: Tue May 29 13:10:48 EEST 2018
User: CanSEE
Dark Spectrum Present: No
Reference Spectrum Present: No
Number of Sampled Component Spectra: 1
Spectrometers: MAYP11278
Integration Time (usec): 230000 (MAYP11278)
Spectra Averaged: 1 (MAYP11278)
Boxcar Smoothing: 0 (MAYP11278)
Correct for Electrical Dark: No (MAYP11278)
Strobe/Lamp Enabled: No (MAYP11278)
Correct for Detector Non-linearity: No (MAYP11278)
Correct for Stray Light: No (MAYP11278)
Number of Pixels in Processed Spectrum: 2068
>>>>>Begin Processed Spectral Data<<<<<
187.82	2340.00
188.30	2227.00
188.78	2212.00
189.26	2216.00
189.73	3175.00
190.21	3330.00
190.69	3405.00
191.17	3345.00
191.64	3455.00
192.12	3412.00
192.60	3398.00
193.07	3373.00
193.55	3427.00
194.03	3401.00
194.51	3387.00
194.98	3383.00
195.46	3419.00
195.94	3401.00
196.42	3419.00
196.89	3527.00
197.37	3371.00
197.85	3347.00
198.32	3413.00
198.80	3359.00
199.28	3429.00
199.76	3457.00
200.23	3411.00
200.71	3381.00
201.19	3440.00
201.66	3409.00
202.14	3442.00
202.62	3393.00
203.09	3443.00
203.57	3390.00
204.05	3435.00
204.53	3481.00
205.00	3387.00
205.48	3395.00
205.96	3478.00
206.43	3441.00
206.91	3460.00
207.39	3513.00
207.86	3446.00
208.34	3481.00
208.82	3401.00
209.29	3511.00
209.77	3422.00
210.25	3432.00
210.72	3422.00
211.20	3431.00
211.68	3417.00
212.15	3402.00
212.63	3507.00
213.11	3492.00
213.58	3410.00
214.06	3486.00
214.53	3443.00
215.01	3468.00
215.49	3470.00
215.96	3444.00
216.44	3453.00
216.92	3437.00
217.39	3438.00
217.87	3400.00
218.35	3483.00
218.82	3408.00
219.30	3392.00
219.77	3402.00
220.25	3432.00
220.73	3518.00
221.20	3421.00
221.68	3481.00
222.15	3408.00
222.63	3452.00
223.11	3457.00
223.58	3477.00
224.06	3442.00
224.53	3395.00
225.01	3415.00
225.49	3474.00
225.96	3399.00
226.44	3453.00
226.91	3444.00
227.39	3413.00
227.87	3477.00
228.34	3458.00
228.82	3491.00
229.29	3442.00
229.77	3457.00
230.24	3415.00
230.72	3444.00
231.20	3505.00
231.67	3455.00
232.15	3439.00
232.62	3409.00
233.10	3406.00
233.57	3447.00
234.05	3586.00
234.53	3440.00
235.00	3418.00
235.48	3434.00
235.95	3435.00
236.43	3481.00
236.90	3539.00
237.38	3435.00
237.85	3411.00
238.33	3463.00
238.80	3457.00
239.28	3427.00
239.75	3431.00
240.23	3427.00
240.71	3509.00
241.18	3462.00
241.66	3415.00
242.13	3448.00
242.61	3520.00
243.08	3384.00
243.56	3434.00
244.03	3419.00
244.51	3503.00
244.98	3410.00
245.46	3502.00
245.93	5217.00
246.41	3359.00
246.88	3456.00
247.36	3414.00
247.83	3460.00
248.31	3474.00
248.78	3392.00
249.26	3435.00
249.73	3473.00
250.21	3513.00
250.68	3524.00
251.16	3441.00
251.63	3538.00
252.10	3511.00
252.58	3469.00
253.05	3500.00
253.53	3492.00
254.00	3444.00
254.48	3473.00
254.95	3494.00
255.43	3509.00
255.90	3439.00
256.38	3459.00
256.85	3488.00
257.33	3536.00
257.80	3592.00
258.27	3481.00
258.75	3455.00
259.22	3473.00
259.70	3479.00
260.17	3495.00
260.65	3498.00
261.12	3403.00
261.59	3485.00
262.07	3415.00
262.54	3477.00
263.02	3465.00
263.49	3402.00
263.97	3487.00
264.44	3494.00
264.91	3455.00
265.39	3484.00
265.86	3472.00
266.34	3504.00
266.81	3457.00
267.28	3471.00
267.76	3442.00
268.23	3443.00
268.71	3399.00
269.18	3412.00
269.65	3411.00
270.13	3462.00
270.60	3532.00
271.08	3451.00
271.55	3514.00
272.02	3377.00
272.50	3434.00
272.97	3395.00
273.44	3449.00
273.92	3594.00
274.39	3488.00
274.87	3476.00
275.34	3435.00
275.81	3445.00
276.29	3427.00
276.76	3461.00
277.23	3383.00
277.71	3345.00
278.18	3365.00
278.65	3475.00
279.13	3363.00
279.60	3423.00
280.07	3691.00
280.55	3677.00
281.02	3761.00
281.50	3532.00
281.97	3586.00
282.44	3523.00
282.91	3467.00
283.39	3501.00
283.86	3479.00
284.33	3468.00
284.81	3552.00
285.28	3527.00
285.75	3466.00
286.23	3502.00
286.70	3453.00
287.17	3471.00
287.65	3547.00
288.12	3467.00
288.59	3500.00
289.07	3387.00
289.54	3554.00
290.01	3425.00
290.48	3474.00
290.96	3473.00
291.43	3491.00
291.90	3543.00
292.38	3450.00
292.85	3486.00
293.32	3421.00
293.79	3482.00
294.27	3488.00
294.74	3437.00
295.21	3485.00
295.69	3477.00
296.16	3510.00
296.63	3540.00
297.10	3521.00
297.58	3487.00
298.05	3519.00
298.52	3429.00
298.99	3543.00
299.47	3489.00
299.94	3523.00
300.41	3466.00
300.88	3505.00
301.36	3504.00
301.83	3497.00
302.30	3383.00
302.77	3505.00
303.25	3533.00
303.72	3443.00
304.19	3498.00
304.66	3434.00
305.13	3493.00
305.61	3479.00
306.08	3500.00
306.55	3523.00
307.02	3420.00
307.49	3476.00
307.97	3474.00
308.44	3476.00
308.91	3496.00
309.38	3554.00
309.86	3497.00
310.33	3511.00
310.80	3496.00
311.27	3469.00
311.74	3524.00
312.21	3480.00
312.69	3546.00
313.16	3460.00
313.63	3520.00
314.10	3494.00
314.57	3469.00
315.05	3445.00
315.52	3539.00
315.99	3519.00
316.46	3473.00
316.93	3542.00
317.40	3468.00
317.88	3632.00
318.35	3520.00
318.82	3497.00
319.29	3453.00
319.76	3538.00
320.23	3565.00
320.70	3543.00
321.18	3487.00
321.65	3415.00
322.12	3455.00
322.59	3580.00
323.06	3480.00
323.53	3643.00
324.00	3451.00
324.48	3567.00
324.95	3509.00
325.42	3522.00
325.89	3505.00
326.36	3535.00
326.83	3507.00
327.30	3545.00
327.77	3550.00
328.24	3524.00
328.72	3527.00
329.19	3491.00
329.66	3532.00
330.13	3501.00
330.60	3567.00
331.07	3586.00
331.54	3579.00
332.01	3486.00
332.48	3558.00
332.95	3578.00
333.43	3587.00
333.90	3559.00
334.37	3554.00
334.84	3558.00
335.31	3667.00
335.78	3475.00
336.25	3544.00
336.72	3537.00
337.19	3532.00
337.66	3490.00
338.13	3532.00
338.60	3650.00
339.07	3574.00
339.54	3462.00
340.01	3449.00
340.49	3477.00
340.96	3545.00
341.43	3564.00
341.90	3494.00
342.37	3543.00
342.84	3528.00
343.31	3492.00
343.78	3524.00
344.25	3495.00
344.72	3488.00
345.19	3529.00
345.66	3551.00
346.13	3531.00
346.60	3470.00
347.07	3601.00
347.54	3492.00
348.01	3589.00
348.48	3501.00
348.95	3462.00
349.42	3529.00
349.89	3585.00
350.36	3503.00
350.83	3468.00
351.30	3526.00
351.77	3607.00
352.24	3558.00
352.71	3501.00
353.18	3497.00
353.65	3558.00
354.12	3513.00
354.59	3563.00
355.06	3536.00
355.53	3622.00
356.00	3487.00
356.47	3611.00
356.94	3481.00
357.41	3671.00
357.88	3561.00
358.35	3472.00
358.82	3496.00
359.28	3510.00
359.75	3507.00
360.22	3586.00
360.69	3645.00
361.16	3499.00
361.63	3506.00
362.10	3548.00
362.57	3531.00
363.04	3523.00
363.51	3605.00
363.98	3524.00
364.45	3467.00
364.92	3573.00
365.39	3487.00
365.86	3481.00
366.32	3554.00
366.79	3528.00
367.26	4447.00
367.73	3821.00
368.20	3507.00
368.67	3592.00
369.14	3499.00
369.61	3554.00
370.08	3548.00
370.55	3483.00
371.02	4334.00
371.48	3511.00
371.95	3485.00
372.42	3454.00
372.89	3531.00
373.36	3529.00
373.83	3494.00
374.30	3519.00
374.77	3511.00
375.23	3480.00
375.70	3591.00
376.17	3503.00
376.64	3483.00
377.11	3474.00
377.58	3571.00
378.05	3543.00
378.51	3534.00
378.98	3553.00
379.45	3505.00
379.92	3565.00
380.39	3625.00
380.86	3529.00
381.33	3603.00
381.79	3613.00
382.26	3469.00
382.73	3508.00
383.20	3531.00
383.67	3547.00
384.14	3545.00
384.60	3745.00
385.07	3503.00
385.54	3546.00
386.01	3515.00
386.48	3603.00
386.94	3495.00
387.41	3477.00
387.88	3550.00
388.35	3557.00
388.82	3575.00
389.28	3511.00
389.75	3526.00
390.22	3511.00
390.69	3583.00
391.16	3535.00
391.62	3523.00
392.09	3539.00
392.56	3475.00
393.03	3496.00
393.50	3634.00
393.96	3486.00
394.43	3540.00
394.90	3494.00
395.37	3549.00
395.83	3724.00
396.30	3468.00
396.77	3561.00
397.24	3551.00
397.70	3500.00
398.17	3537.00
398.64	3483.00
399.11	3493.00
399.57	3561.00
400.04	3504.00
400.51	3502.00
400.98	3510.00
401.44	3573.00
401.91	3519.00
402.38	3542.00
402.84	3525.00
403.31	3596.00
403.78	3552.00
404.25	3604.00
404.71	3595.00
405.18	3592.00
405.65	3458.00
406.12	3568.00
406.58	3563.00
407.05	3633.00
407.52	3525.00
407.98	4056.00
408.45	3551.00
408.92	3463.00
409.38	3598.00
409.85	3535.00
410.32	3597.00
410.78	3527.00
411.25	3633.00
411.72	3546.00
412.18	3487.00
412.65	3617.00
413.12	3563.00
413.59	3561.00
414.05	3592.00
414.52	3677.00
414.98	3544.00
415.45	3638.00
415.92	3572.00
416.38	3548.00
416.85	3685.00
417.32	3647.00
417.78	3570.00
418.25	3590.00
418.72	3571.00
419.18	3631.00
419.65	3559.00
420.12	3638.00
420.58	3602.00
421.05	3572.00
421.51	3577.00
421.98	3655.00
422.45	3575.00
422.91	3659.00
423.38	3669.00
423.85	3621.00
424.31	3603.00
424.78	3651.00
425.24	3609.00
425.71	3701.00
426.18	3589.00
426.64	3682.00
427.11	3648.00
427.57	3657.00
428.04	3617.00
428.51	3675.00
428.97	3662.00
429.44	3612.00
429.90	3628.00
430.37	3745.00
430.83	3605.00
431.30	3625.00
431.77	3713.00
432.23	3721.00
432.70	3640.00
433.16	3637.00
433.63	3629.00
434.09	3641.00
434.56	3689.00
435.03	3597.00
435.49	3693.00
435.96	3677.00
436.42	3645.00
436.89	3709.00
437.35	3691.00
437.82	3669.00
438.28	3625.00
438.75	3639.00
439.21	3849.00
439.68	3725.00
440.14	3709.00
440.61	3765.00
441.07	3618.00
441.54	3717.00
442.00	3772.00
442.47	3664.00
442.94	3713.00
443.40	3750.00
443.87	3659.00
444.33	3792.00
444.80	3753.00
445.26	3737.00
445.73	3715.00
446.19	3754.00
446.65	3722.00
447.12	3723.00
447.58	3690.00
448.05	3697.00
448.51	3803.00
448.98	3739.00
449.44	3727.00
449.91	3734.00
450.37	3735.00
450.84	3738.00
451.30	3765.00
451.77	3793.00
452.23	3724.00
452.70	3814.00
453.16	3732.00
453.62	3743.00
454.09	3746.00
454.55	3760.00
455.02	3736.00
455.48	3705.00
455.95	3763.00
456.41	3731.00
456.88	3794.00
457.34	3786.00
457.80	3746.00
458.27	3680.00
458.73	3714.00
459.20	3807.00
459.66	3749.00
460.13	3703.00
460.59	3676.00
461.05	3770.00
461.52	3720.00
461.98	3712.00
462.45	3679.00
462.91	3759.00
463.37	3685.00
463.84	3705.00
464.30	3681.00
464.76	3605.00
465.23	3689.00
465.69	3721.00
466.16	3687.00
466.62	3687.00
467.08	3698.00
467.55	3651.00
468.01	3701.00
468.48	3679.00
468.94	3689.00
469.40	3571.00
469.87	3643.00
470.33	3680.00
470.79	3669.00
471.26	3664.00
471.72	3641.00
472.18	3627.00
472.65	3658.00
473.11	3689.00
473.57	3647.00
474.04	3594.00
474.50	3639.00
474.96	3625.00
475.43	3655.00
475.89	3613.00
476.35	3663.00
476.82	3633.00
477.28	3629.00
477.74	3691.00
478.21	3655.00
478.67	3692.00
479.13	3587.00
479.59	3738.00
480.06	3645.00
480.52	3633.00
480.98	3595.00
481.45	3620.00
481.91	3642.00
482.37	3596.00
482.84	3617.00
483.30	3547.00
483.76	3613.00
484.22	3657.00
484.69	3615.00
485.15	3610.00
485.61	3513.00
486.07	3563.00
486.54	3528.00
487.00	3583.00
487.46	3559.00
487.92	3571.00
488.39	3577.00
488.85	3625.00
489.31	3616.00
489.77	3663.00
490.24	3573.00
490.70	3646.00
491.16	3587.00
491.62	3575.00
492.09	3574.00
492.55	3701.00
493.01	3633.00
493.47	3659.00
493.94	3611.00
494.40	3649.00
494.86	3657.00
495.32	3613.00
495.78	3621.00
496.25	3648.00
496.71	3629.00
497.17	3722.00
497.63	3709.00
498.09	3627.00
498.56	3658.00
499.02	3645.00
499.48	3825.00
499.94	3688.00
500.40	3683.00
500.87	3703.00
501.33	3621.00
501.79	3739.00
502.25	3720.00
502.71	4030.00
503.17	3695.00
503.64	3760.00
504.10	3725.00
504.56	3769.00
505.02	3766.00
505.48	3777.00
505.94	3794.00
506.40	3839.00
506.87	3815.00
507.33	3782.00
507.79	3860.00
508.25	3808.00
508.71	3846.00
509.17	3847.00
509.63	3882.00
510.10	3905.00
510.56	3925.00
511.02	4032.00
511.48	4049.00
511.94	3931.00
512.40	3941.00
512.86	3967.00
513.32	4089.00
513.78	3977.00
514.25	4093.00
514.71	4772.00
515.17	3990.00
515.63	4132.00
516.09	4186.00
516.55	4101.00
517.01	4213.00
517.47	4170.00
517.93	4171.00
518.39	4375.00
518.85	4275.00
519.32	4332.00
519.78	4355.00
520.24	4386.00
520.70	4439.00
521.16	4533.00
521.62	4551.00
522.08	4569.00
522.54	4551.00
523.00	4695.00
523.46	4741.00
523.92	4707.00
524.38	4880.00
524.84	4749.00
525.30	4881.00
525.76	4867.00
526.22	4728.00
526.68	4745.00
527.14	4786.00
527.60	4884.00
528.06	5032.00
528.52	5064.00
528.98	5073.00
529.44	5026.00
529.90	5146.00
530.36	5149.00
530.82	5136.00
531.28	5272.00
531.74	5130.00
532.20	5135.00
532.66	5106.00
533.12	5184.00
533.58	5250.00
534.04	5216.00
534.50	5261.00
534.96	5287.00
535.42	5327.00
535.88	5319.00
536.34	5314.00
536.80	5227.00
537.26	5448.00
537.72	5393.00
538.18	5384.00
538.64	5460.00
539.10	5427.00
539.56	5584.00
540.02	5253.00
540.48	5385.00
540.94	5387.00
541.40	5362.00
541.86	5401.00
542.32	5475.00
542.78	5394.00
543.24	5575.00
543.69	5427.00
544.15	5650.00
544.61	5517.00
545.07	5507.00
545.53	5527.00
545.99	5598.00
546.45	5593.00
546.91	5526.00
547.37	5533.00
547.83	5515.00
548.29	5574.00
548.74	5631.00
549.20	5560.00
549.66	5687.00
550.12	5607.00
550.58	5532.00
551.04	5643.00
551.50	5680.00
551.96	5739.00
552.42	5615.00
552.87	5542.00
553.33	5691.00
553.79	5685.00
554.25	5600.00
554.71	5692.00
555.17	5617.00
555.63	5700.00
556.08	5603.00
556.54	5689.00
557.00	5528.00
557.46	5584.00
557.92	5712.00
558.38	5505.00
558.83	5429.00
559.29	5451.00
559.75	5461.00
560.21	5542.00
560.67	5524.00
561.13	5518.00
561.58	5399.00
562.04	5448.00
562.50	5440.00
562.96	5457.00
563.42	5480.00
563.87	5398.00
564.33	5401.00
564.79	5411.00
565.25	5345.00
565.71	5307.00
566.16	5368.00
566.62	5291.00
567.08	5285.00
567.54	5293.00
568.00	5303.00
568.45	5235.00
568.91	5161.00
569.37	5235.00
569.83	5110.00
570.28	5089.00
570.74	5032.00
571.20	5125.00
571.66	5037.00
572.11	5058.00
572.57	5090.00
573.03	5006.00
573.49	5002.00
573.94	4961.00
574.40	5058.00
574.86	4969.00
575.32	4860.00
575.77	4939.00
576.23	4819.00
576.69	4978.00
577.15	4843.00
577.60	4806.00
578.06	4716.00
578.52	4819.00
578.97	4826.00
579.43	4798.00
579.89	4869.00
580.34	4841.00
580.80	4807.00
581.26	4787.00
581.72	4809.00
582.17	4766.00
582.63	4730.00
583.09	4813.00
583.54	4724.00
584.00	4732.00
584.46	4724.00
584.91	4634.00
585.37	4770.00
585.83	4609.00
586.28	4602.00
586.74	4706.00
587.20	4647.00
587.65	4694.00
588.11	4510.00
588.57	4531.00
589.02	4421.00
589.48	4416.00
589.94	4500.00
590.39	4531.00
590.85	4505.00
591.30	4526.00
591.76	4613.00
592.22	4514.00
592.67	4547.00
593.13	4497.00
593.59	4518.00
594.04	4538.00
594.50	4453.00
594.95	4505.00
595.41	4489.00
595.87	4440.00
596.32	4595.00
596.78	4543.00
597.23	4575.00
597.69	4529.00
598.15	4409.00
598.60	4474.00
599.06	4596.00
599.51	4523.00
599.97	4495.00
600.43	4519.00
600.88	4505.00
601.34	4484.00
601.79	4464.00
602.25	4592.00
602.70	4431.00
603.16	4468.00
603.61	4435.00
604.07	4400.00
604.53	4463.00
604.98	4421.00
605.44	4491.00
605.89	4406.00
606.35	4348.00
606.80	4479.00
607.26	4377.00
607.71	4384.00
608.17	4394.00
608.62	4387.00
609.08	4455.00
609.53	4377.00
609.99	4355.00
610.44	4303.00
610.90	4344.00
611.35	4308.00
611.81	4399.00
612.26	4307.00
612.72	4253.00
613.17	4428.00
613.63	4207.00
614.08	4198.00
614.54	4201.00
614.99	4153.00
615.45	4187.00
615.90	4185.00
616.36	4166.00
616.81	4169.00
617.27	4161.00
617.72	4221.00
618.18	4157.00
618.63	4172.00
619.09	4121.00
619.54	4193.00
619.99	4171.00
620.45	4184.00
620.90	4197.00
621.36	4149.00
621.81	4201.00
622.27	4220.00
622.72	4175.00
623.18	4096.00
623.63	4061.00
624.08	4175.00
624.54	4029.00
624.99	4073.00
625.45	4139.00
625.90	4053.00
626.35	4152.00
626.81	4124.00
627.26	4066.00
627.72	4061.00
628.17	4125.00
628.62	4054.00
629.08	4092.00
629.53	4077.00
629.99	4040.00
630.44	4028.00
630.89	4059.00
631.35	4112.00
631.80	4095.00
632.26	4091.00
632.71	4050.00
633.16	4071.00
633.62	3993.00
634.07	4061.00
634.52	4032.00
634.98	4013.00
635.43	4032.00
635.88	4020.00
636.34	4021.00
636.79	4013.00
637.24	3999.00
637.70	4083.00
638.15	4037.00
638.60	4002.00
639.06	4015.00
639.51	3988.00
639.96	3913.00
640.42	3991.00
640.87	4003.00
641.32	3877.00
641.78	3962.00
642.23	3898.00
642.68	3862.00
643.14	3905.00
643.59	3904.00
644.04	3894.00
644.49	3848.00
644.95	3879.00
645.40	3767.00
645.85	3807.00
646.31	3884.00
646.76	3857.00
647.21	3834.00
647.66	3852.00
648.12	3818.00
648.57	3712.00
649.02	3848.00
649.47	3826.00
649.93	3999.00
650.38	3748.00
650.83	3783.00
651.28	3729.00
651.74	3780.00
652.19	3714.00
652.64	3731.00
653.09	3679.00
653.55	3734.00
654.00	3758.00
654.45	3757.00
654.90	3709.00
655.35	3653.00
655.81	3707.00
656.26	3591.00
656.71	3636.00
657.16	3733.00
657.62	3763.00
658.07	3683.00
658.52	3673.00
658.97	3625.00
659.42	3837.00
659.88	3633.00
660.33	3713.00
660.78	3682.00
661.23	3631.00
661.68	3629.00
662.13	3615.00
662.59	3559.00
663.04	3639.00
663.49	3620.00
663.94	3548.00
664.39	3569.00
664.84	3581.00
665.30	3614.00
665.75	3531.00
666.20	3580.00
666.65	3575.00
667.10	3703.00
667.55	3634.00
668.00	3513.00
668.46	3587.00
668.91	3523.00
669.36	3647.00
669.81	3477.00
670.26	3528.00
670.71	3582.00
671.16	3560.00
671.61	3611.00
672.06	3673.00
672.52	3506.00
672.97	3542.00
673.42	3577.00
673.87	3661.00
674.32	3543.00
674.77	3545.00
675.22	3454.00
675.67	3511.00
676.12	3518.00
676.57	3493.00
677.02	3499.00
677.47	3566.00
677.93	3655.00
678.38	3461.00
678.83	3508.00
679.28	3524.00
679.73	3521.00
680.18	3518.00
680.63	3509.00
681.08	3434.00
681.53	3459.00
681.98	3515.00
682.43	3528.00
682.88	3547.00
683.33	3565.00
683.78	3567.00
684.23	3607.00
684.68	3599.00
685.13	3557.00
685.58	3589.00
686.03	3575.00
686.48	3514.00
686.93	3554.00
687.38	3507.00
687.83	3581.00
688.28	3561.00
688.73	3733.00
689.18	3679.00
689.63	3613.00
690.08	3693.00
690.53	3685.00
690.98	3723.00
691.43	3812.00
691.88	3798.00
692.33	3901.00
692.78	3915.00
693.23	3985.00
693.68	4018.00
694.13	4037.00
694.58	4056.00
695.03	4347.00
695.48	4197.00
695.93	4313.00
696.38	4473.00
696.83	4411.00
697.28	4495.00
697.72	4539.00
698.17	4568.00
698.62	4673.00
699.07	4727.00
699.52	4674.00
699.97	4814.00
700.42	4870.00
700.87	4976.00
701.32	5107.00
701.77	4981.00
702.22	5139.00
702.67	5120.00
703.11	5193.00
703.56	5341.00
704.01	5355.00
704.46	5395.00
704.91	5645.00
705.36	5570.00
705.81	5616.00
706.26	5647.00
706.70	5749.00
707.15	5821.00
707.60	5875.00
708.05	6011.00
708.50	6122.00
708.95	6074.00
709.40	6163.00
709.84	6162.00
710.29	6182.00
710.74	6281.00
711.19	6399.00
711.64	6440.00
712.09	6440.00
712.53	6461.00
712.98	6613.00
713.43	6606.00
713.88	6647.00
714.33	6729.00
714.78	6766.00
715.22	6764.00
715.67	6755.00
716.12	6680.00
716.57	6537.00
717.02	6319.00
717.46	6263.00
717.91	6263.00
718.36	6327.00
718.81	6116.00
719.26	6274.00
719.70	6250.00
720.15	6413.00
720.60	6553.00
721.05	6859.00
721.49	6993.00
721.94	7241.00
722.39	7149.00
722.84	7021.00
723.28	6837.00
723.73	6853.00
724.18	6752.00
724.63	6997.00
725.07	6883.00
725.52	7009.00
725.97	7137.00
726.42	7174.00
726.86	7331.00
727.31	7129.00
727.76	7259.00
728.21	7434.00
728.65	7365.00
729.10	7430.00
729.55	7383.00
729.99	7518.00
730.44	7594.00
730.89	7694.00
731.33	7717.00
731.78	7916.00
732.23	8117.00
732.68	8242.00
733.12	8339.00
733.57	8350.00
734.02	8513.00
734.46	8653.00
734.91	8642.00
735.36	8666.00
735.80	8851.00
736.25	8687.00
736.70	8775.00
737.14	8896.00
737.59	8976.00
738.04	8941.00
738.48	8779.00
738.93	8888.00
739.37	8918.00
739.82	9121.00
740.27	9249.00
740.71	9145.00
741.16	9110.00
741.61	9127.00
742.05	9181.00
742.50	9259.00
742.94	9172.00
743.39	9315.00
743.84	9341.00
744.28	9399.00
744.73	9458.00
745.18	9530.00
745.62	9527.00
746.07	9611.00
746.51	9363.00
746.96	9487.00
747.40	9394.00
747.85	9398.00
748.30	9401.00
748.74	9434.00
749.19	9507.00
749.63	9600.00
750.08	9478.00
750.52	9475.00
750.97	9354.00
751.42	9452.00
751.86	9486.00
752.31	9383.00
752.75	9520.00
753.20	9337.00
753.64	9402.00
754.09	9325.00
754.53	9395.00
754.98	9296.00
755.42	9388.00
755.87	9429.00
756.31	9443.00
756.76	9303.00
757.20	9343.00
757.65	9289.00
758.09	9122.00
758.54	8904.00
758.98	8217.00
759.43	6954.00
759.87	5719.00
760.32	5033.00
760.76	4935.00
761.21	5481.00
761.65	6163.00
762.10	6277.00
762.54	5979.00
762.99	5835.00
763.43	5997.00
763.88	6118.00
764.32	6476.00
764.77	6862.00
765.21	7214.00
765.66	7458.00
766.10	7763.00
766.54	8063.00
766.99	8289.00
767.43	8621.00
767.88	8671.00
768.32	8920.00
768.77	8869.00
769.21	9120.00
769.66	9032.00
770.10	9231.00
770.54	9225.00
770.99	9173.00
771.43	9265.00
771.88	9177.00
772.32	9257.00
772.76	9148.00
773.21	9220.00
773.65	9158.00
774.10	9096.00
774.54	9131.00
774.98	9143.00
775.43	9208.00
775.87	9272.00
776.31	9250.00
776.76	9355.00
777.20	9325.00
777.65	9210.00
778.09	9244.00
778.53	9125.00
778.98	9091.00
779.42	9212.00
779.86	9150.00
780.31	9144.00
780.75	9245.00
781.19	9161.00
781.64	9098.00
782.08	9231.00
782.52	9205.00
782.97	9150.00
783.41	9097.00
783.85	9078.00
784.30	8973.00
784.74	8934.00
785.18	8905.00
785.63	8885.00
786.07	8966.00
786.51	8945.00
786.95	9043.00
787.40	8916.00
787.84	8756.00
788.28	8787.00
788.73	8845.00
789.17	8715.00
789.61	8631.00
790.05	8620.00
790.50	8526.00
790.94	8509.00
791.38	8582.00
791.82	8518.00
792.27	8561.00
792.71	8602.00
793.15	8856.00
793.59	8589.00
794.04	8565.00
794.48	8589.00
794.92	8459.00
795.36	8269.00
795.81	8422.00
796.25	8403.00
796.69	8345.00
797.13	8307.00
797.57	8437.00
798.02	8539.00
798.46	8595.00
798.90	8561.00
799.34	8434.00
799.79	8374.00
800.23	8275.00
800.67	8219.00
801.11	8251.00
801.55	8257.00
801.99	8146.00
802.44	8281.00
802.88	8299.00
803.32	8299.00
803.76	8314.00
804.20	8370.00
804.64	8372.00
805.09	8412.00
805.53	8353.00
805.97	8317.00
806.41	8225.00
806.85	8257.00
807.29	8027.00
807.74	8047.00
808.18	8059.00
808.62	8088.00
809.06	8037.00
809.50	8011.00
809.94	7939.00
810.38	8151.00
810.82	8087.00
811.27	8117.00
811.71	7925.00
812.15	7850.00
812.59	7651.00
813.03	7553.00
813.47	7325.00
813.91	7191.00
814.35	7197.00
814.79	7106.00
815.23	7145.00
815.67	6958.00
816.12	7047.00
816.56	6965.00
817.00	7035.00
817.44	7077.00
817.88	7128.00
818.32	7034.00
818.76	7059.00
819.20	7043.00
819.64	7096.00
820.08	7186.00
820.52	7259.00
820.96	7424.00
821.40	7257.00
821.84	7143.00
822.28	6825.00
822.72	6855.00
823.16	6824.00
823.60	7041.00
824.04	7426.00
824.48	7331.00
824.92	7386.00
825.36	7459.00
825.80	7390.00
826.24	7298.00
826.68	7171.00
827.12	7197.00
827.56	7114.00
828.00	7153.00
828.44	7159.00
828.88	7228.00
829.32	7296.00
829.76	7245.00
830.20	7434.00
830.64	7299.00
831.08	7429.00
831.52	7231.00
831.96	7182.00
832.40	7087.00
832.84	7162.00
833.28	7133.00
833.72	7361.00
834.16	7424.00
834.60	7511.00
835.04	7583.00
835.48	7611.00
835.91	7558.00
836.35	7597.00
836.79	7482.00
837.23	7584.00
837.67	7525.00
838.11	7416.00
838.55	7491.00
838.99	7437.00
839.43	7521.00
839.87	7610.00
840.30	7589.00
840.74	7797.00
841.18	7743.00
841.62	7657.00
842.06	7717.00
842.50	7699.00
842.94	7736.00
843.38	7554.00
843.81	7496.00
844.25	7470.00
844.69	7289.00
845.13	7407.00
845.57	7398.00
846.01	7419.00
846.45	7477.00
846.88	7523.00
847.32	7611.00
847.76	7631.00
848.20	7701.00
848.64	7618.00
849.08	7468.00
849.51	7547.00
849.95	7455.00
850.39	7471.00
850.83	7539.00
851.27	7363.00
851.70	7340.00
852.14	7387.00
852.58	7171.00
853.02	7075.00
853.46	6994.00
853.89	6853.00
854.33	6997.00
854.77	7074.00
855.21	7459.00
855.65	7569.00
856.08	7638.00
856.52	7560.00
856.96	7613.00
857.40	7462.00
857.83	7378.00
858.27	7373.00
858.71	7151.00
859.15	7279.00
859.58	7303.00
860.02	7234.00
860.46	7408.00
860.89	7451.00
861.33	7452.00
861.77	7638.00
862.21	7621.00
862.64	7595.00
863.08	7574.00
863.52	7587.00
863.95	7416.00
864.39	7329.00
864.83	7157.00
865.27	6896.00
865.70	6976.00
866.14	6818.00
866.58	6938.00
867.01	7019.00
867.45	7220.00
867.89	7217.00
868.32	7395.00
868.76	7511.00
869.20	7517.00
869.63	7581.00
870.07	7451.00
870.51	7347.00
870.94	7230.00
871.38	7093.00
871.82	7098.00
872.25	7025.00
872.69	7070.00
873.13	7022.00
873.56	7127.00
874.00	7168.00
874.43	7207.00
874.87	7275.00
875.31	7348.00
875.74	7267.00
876.18	7387.00
876.61	7299.00
877.05	7337.00
877.49	7251.00
877.92	7224.00
878.36	7121.00
878.79	7019.00
879.23	7024.00
879.67	6885.00
880.10	6794.00
880.54	6810.00
880.97	6965.00
881.41	7068.00
881.84	7184.00
882.28	7247.00
882.72	7274.00
883.15	7359.00
883.59	7333.00
884.02	7392.00
884.46	7336.00
884.89	7287.00
885.33	7150.00
885.76	7069.00
886.20	6918.00
886.63	6948.00
887.07	6755.00
887.50	6787.00
887.94	6757.00
888.37	6903.00
888.81	7060.00
889.24	7001.00
889.68	7044.00
890.11	7094.00
890.55	7200.00
890.98	7190.00
891.42	7142.00
891.85	7052.00
892.29	7084.00
892.72	6948.00
893.16	6766.00
893.59	6723.00
894.03	6576.00
894.46	6475.00
894.90	6306.00
895.33	6112.00
895.77	6192.00
896.20	6131.00
896.63	6091.00
897.07	6153.00
897.50	6140.00
897.94	6155.00
898.37	6342.00
898.81	6053.00
899.24	5924.00
899.68	6240.00
900.11	6293.00
900.54	6040.00
900.98	5981.00
901.41	6011.00
901.85	6094.00
902.28	5957.00
902.71	6076.00
903.15	6290.00
903.58	6318.00
904.02	6284.00
904.45	6286.00
904.88	6290.00
905.32	6245.00
905.75	6347.00
906.18	6110.00
906.62	6110.00
907.05	6075.00
907.48	6080.00
907.92	6041.00
908.35	6111.00
908.79	5969.00
909.22	5888.00
909.65	5887.00
910.09	5908.00
910.52	5997.00
910.95	5779.00
911.38	5838.00
911.82	5803.00
912.25	5789.00
912.68	5921.00
913.12	5900.00
913.55	5869.00
913.98	5937.00
914.42	6100.00
914.85	6085.00
915.28	5949.00
915.72	6022.00
916.15	5907.00
916.58	5965.00
917.01	5804.00
917.45	5778.00
917.88	5827.00
918.31	5850.00
918.74	6026.00
919.18	6032.00
919.61	6051.00
920.04	6078.00
920.47	6214.00
920.91	6245.00
921.34	6131.00
921.77	6103.00
922.20	6263.00
922.64	6213.00
923.07	6268.00
923.50	6123.00
923.93	6035.00
924.37	6007.00
924.80	5953.00
925.23	6018.00
925.66	5893.00
926.09	5617.00
926.53	5605.00
926.96	5399.00
927.39	5552.00
927.82	5211.00
928.25	5133.00
928.69	5107.00
929.12	5057.00
929.55	4912.00
929.98	4882.00
930.41	4707.00
930.84	4641.00
931.28	4490.00
931.71	4445.00
932.14	4293.00
932.57	4260.00
933.00	4094.00
933.43	4102.00
933.86	4021.00
934.30	3972.00
934.73	4076.00
935.16	3955.00
935.59	3907.00
936.02	4014.00
936.45	3955.00
936.88	3963.00
937.31	4128.00
937.75	4084.00
938.18	4218.00
938.61	4297.00
939.04	4389.00
939.47	4324.00
939.90	4229.00
940.33	4284.00
940.76	4046.00
941.19	4065.00
941.62	3993.00
942.05	3978.00
942.48	3892.00
942.91	3861.00
943.35	3907.00
943.78	3937.00
944.21	3895.00
944.64	3947.00
945.07	3959.00
945.50	3933.00
945.93	3985.00
946.36	4073.00
946.79	4060.00
947.22	4106.00
947.65	4109.00
948.08	3993.00
948.51	4079.00
948.94	4138.00
949.37	4205.00
949.80	4081.00
950.23	4020.00
950.66	4097.00
951.09	4149.00
951.52	3980.00
951.95	4085.00
952.38	4083.00
952.81	4221.00
953.24	4228.00
953.67	4232.00
954.10	4262.00
954.53	4307.00
954.96	4264.00
955.39	4350.00
955.82	4357.00
956.25	4398.00
956.68	4511.00
957.11	4375.00
957.53	4422.00
957.96	4377.00
958.39	4280.00
958.82	4274.00
959.25	4297.00
959.68	4347.00
960.11	4378.00
960.54	4517.00
960.97	4525.00
961.40	4584.00
961.83	4614.00
962.26	4553.00
962.68	4721.00
963.11	4731.00
963.54	4788.00
963.97	4753.00
964.40	4758.00
964.83	4825.00
965.26	4855.00
965.69	4865.00
966.11	4844.00
966.54	4788.00
966.97	4950.00
967.40	5000.00
967.83	5119.00
968.26	4973.00
968.69	4951.00
969.11	5010.00
969.54	4941.00
969.97	4919.00
970.40	5091.00
970.83	5043.00
971.26	5035.00
971.68	5007.00
972.11	5031.00
972.54	5127.00
972.97	5133.00
973.40	5017.00
973.82	5052.00
974.25	5035.00
974.68	5041.00
975.11	4985.00
975.54	4919.00
975.96	4900.00
976.39	4841.00
976.82	4963.00
977.25	4904.00
977.67	4880.00
978.10	4897.00
978.53	4908.00
978.96	5025.00
979.38	5055.00
979.81	5086.00
980.24	5173.00
980.67	5231.00
981.09	5211.00
981.52	5227.00
981.95	5245.00
982.38	5219.00
982.80	5245.00
983.23	5397.00
983.66	5354.00
984.08	5266.00
984.51	5180.00
984.94	5195.00
985.37	5280.00
985.79	5171.00
986.22	5146.00
986.65	5084.00
987.07	5048.00
987.50	5132.00
987.93	5118.00
988.35	5067.00
988.78	5130.00
989.21	5171.00
989.63	5175.00
990.06	5247.00
990.49	5280.00
990.91	5388.00
991.34	5242.00
991.77	5301.00
992.19	5328.00
992.62	5290.00
993.05	5284.00
993.47	5275.00
993.90	5303.00
994.32	5218.00
994.75	5143.00
995.18	5118.00
995.60	5033.00
996.03	4976.00
996.45	5134.00
996.88	5044.00
997.31	4928.00
997.73	5036.00
998.16	5005.00
998.58	5069.00
999.01	5008.00
999.44	5067.00
999.86	5153.00
1000.29	5049.00
1000.71	5137.00
1001.14	5124.00
1001.56	5085.00
1001.99	5134.00
1002.41	5097.00
1002.84	5082.00
1003.27	4983.00
1003.69	4987.00
1004.12	4949.00
1004.54	4881.00
1004.97	4804.00
1005.39	4740.00
1005.82	4817.00
1006.24	4747.00
1006.67	4764.00
1007.09	4791.00
1007.52	4760.00
1007.94	4817.00
1008.37	4945.00
1008.79	4900.00
1009.22	4875.00
1009.64	4820.00
1010.07	4859.00
1010.49	4887.00
1010.92	4829.00
1011.34	4880.00
1011.77	4839.00
1012.19	4852.00
1012.62	4868.00
1013.04	4763.00
1013.46	4833.00
1013.89	4632.00
1014.31	4695.00
1014.74	4626.00
1015.16	4635.00
1015.59	4613.00
1016.01	4647.00
1016.44	4589.00
1016.86	5437.00
1017.28	4625.00
1017.71	4583.00
1018.13	4797.00
1018.56	4774.00
1018.98	4785.00
1019.40	4691.00
1019.83	4699.00
1020.25	4753.00
1020.68	4733.00
1021.10	4807.00
1021.52	4803.00
1021.95	4938.00
1022.37	4867.00
1022.79	4749.00
1023.22	4775.00
1023.64	4761.00
1024.07	4776.00
1024.49	4715.00
1024.91	4630.00
1025.34	4582.00
1025.76	4798.00
1026.18	4571.00
1026.61	4609.00
1027.03	4622.00
1027.45	4569.00
1027.88	4613.00
1028.30	4689.00
1028.72	4628.00
1029.15	4625.00
1029.57	4639.00
1029.99	4697.00
1030.41	4627.00
1030.84	4683.00
1031.26	4651.00
1031.68	4595.00
1032.11	4663.00
1032.53	4584.00
1032.95	4571.00
1033.37	4610.00
1033.80	4588.00
1034.22	4431.00
1034.64	4521.00
1035.06	4460.00
1035.49	4416.00
1035.91	4440.00
1036.33	4351.00
1036.75	4411.00
1037.18	4458.00
1037.60	4397.00
1038.02	4396.00
1038.44	4389.00
1038.87	4381.00
1039.29	4361.00
1039.71	4346.00
1040.13	4369.00
1040.55	4446.00
1040.98	4451.00
1041.40	4390.00
1041.82	4364.00
1042.24	4351.00
1042.66	4357.00
1043.09	4266.00
1043.51	4262.00
1043.93	4269.00
1044.35	4192.00
1044.77	4270.00
1045.20	4232.00
1045.62	4173.00
1046.04	4193.00
1046.46	4181.00
1046.88	4094.00
1047.30	4185.00
1047.72	4189.00
1048.15	4159.00
1048.57	4075.00
1048.99	4070.00
1049.41	4153.00
1049.83	4107.00
1050.25	4205.00
1050.67	4135.00
1051.09	4108.00
1051.52	4167.00
1051.94	3955.00
1052.36	4075.00
1052.78	4020.00
1053.20	4057.00
1053.62	4010.00
1054.04	4044.00
1054.46	4034.00
1054.88	4123.00
1055.30	4076.00
1055.72	4017.00
1056.14	3927.00
1056.57	4171.00
1056.99	3901.00
1057.41	4002.00
1057.83	3965.00
1058.25	3915.00
1058.67	3897.00
1059.09	3887.00
1059.51	3971.00
1059.93	3891.00
1060.35	3850.00
1060.77	3908.00
1061.19	3930.00
1061.61	3868.00
1062.03	3793.00
1062.45	3820.00
1062.87	3880.00
1063.29	3907.00
1063.71	3843.00
1064.13	3789.00
1064.55	3765.00
1064.97	3849.00
1065.39	3820.00
1065.81	3817.00
1066.23	3847.00
1066.65	3781.00
1067.07	3831.00
1067.49	3807.00
1067.91	3737.00
1068.33	3711.00
1068.75	3804.00
1069.17	3786.00
1069.59	3783.00
1070.00	3712.00
1070.42	3779.00
1070.84	3714.00
1071.26	3675.00
1071.68	3675.00
1072.10	3735.00
1072.52	3713.00
1072.94	3621.00
1073.36	3671.00
1073.78	3684.00
1074.20	3711.00
1074.62	3677.00
1075.03	3664.00
1075.45	3685.00
1075.87	3708.00
1076.29	3678.00
1076.71	3682.00
1077.13	3694.00
1077.55	3589.00
1077.97	3675.00
1078.38	3605.00
1078.80	3640.00
1079.22	3655.00
1079.64	3637.00
1080.06	3596.00
1080.48	3615.00
1080.89	3593.00
1081.31	3556.00
1081.73	3599.00
1082.15	3600.00
1082.57	3622.00
1082.99	3587.00
1083.40	3544.00
1083.82	3633.00
1084.24	3528.00
1084.66	3568.00
1085.08	3540.00
1085.49	3488.00
1085.91	3597.00
1086.33	4771.00
1086.75	3595.00
1087.17	3502.00
1087.58	3525.00
1088.00	3519.00
1088.42	3539.00
1088.84	3516.00
1089.25	3498.00
1089.67	3537.00
1090.09	3517.00
1090.51	3459.00
1090.92	3542.00
1091.34	3485.00
1091.76	3452.00
1092.18	3436.00
1092.59	3445.00
1093.01	3506.00
1093.43	3477.00
1093.84	3453.00
1094.26	3442.00
1094.68	3493.00
1095.10	3437.00
1095.51	3451.00
1095.93	3423.00
1096.35	3489.00
1096.76	3425.00
1097.18	3467.00
1097.60	3439.00
1098.01	3428.00
1098.43	3369.00
1098.85	3393.00
1099.26	3369.00
1099.68	3385.00
1100.10	3361.00
1100.51	3368.00
1100.93	3399.00
1101.35	3415.00
1101.76	3400.00
1102.18	3861.00
1102.60	3423.00
1103.01	3310.00
1103.43	3365.00
1103.84	3352.00
1104.26	3318.00
1104.68	3322.00
1105.09	3325.00
1105.51	3297.00
1105.92	3379.00
1106.34	3288.00
1106.76	3335.00
1107.17	3340.00
1107.59	3345.00
1108.00	3253.00
1108.42	3313.00
1108.83	3270.00
1109.25	3285.00
1109.67	3255.00
1110.08	3279.00
1110.50	3233.00
1110.91	3273.00
1111.33	3253.00
1111.74	3238.00
1112.16	3331.00
1112.57	3288.00
1112.99	3231.00
1113.41	3279.00
1113.82	3252.00
1114.24	3265.00
1114.65	3250.00
1115.07	3185.00
1115.48	3094.00
1115.90	2183.00
1116.31	2211.00
1116.73	2211.00
1117.14	2207.00
>>>>>End Processed Spectral Data<<<<<
