SpectraSuite Data File
++++++++++++++++++++++++++++++++++++
Date: Tue May 29 13:11:11 EEST 2018
User: CanSEE
Dark Spectrum Present: No
Reference Spectrum Present: No
Number of Sampled Component Spectra: 1
Spectrometers: MAYP11278
Integration Time (usec): 230000 (MAYP11278)
Spectra Averaged: 1 (MAYP11278)
Boxcar Smoothing: 0 (MAYP11278)
Correct for Electrical Dark: No (MAYP11278)
Strobe/Lamp Enabled: No (MAYP11278)
Correct for Detector Non-linearity: No (MAYP11278)
Correct for Stray Light: No (MAYP11278)
Number of Pixels in Processed Spectrum: 2068
>>>>>Begin Processed Spectral Data<<<<<
187.82	2337.00
188.30	2234.00
188.78	2211.00
189.26	2214.00
189.73	3245.00
190.21	3402.00
190.69	3542.00
191.17	3570.00
191.64	3593.00
192.12	3567.00
192.60	3556.00
193.07	3527.00
193.55	3550.00
194.03	3577.00
194.51	3543.00
194.98	3541.00
195.46	3601.00
195.94	3553.00
196.42	3569.00
196.89	3659.00
197.37	3580.00
197.85	3521.00
198.32	3570.00
198.80	3553.00
199.28	3572.00
199.76	3632.00
200.23	3543.00
200.71	3579.00
201.19	3598.00
201.66	3621.00
202.14	3595.00
202.62	3536.00
203.09	3615.00
203.57	3535.00
204.05	3595.00
204.53	3646.00
205.00	3533.00
205.48	3518.00
205.96	3658.00
206.43	3535.00
206.91	3553.00
207.39	3688.00
207.86	3597.00
208.34	3647.00
208.82	3588.00
209.29	3594.00
209.77	3587.00
210.25	3583.00
210.72	3585.00
211.20	3630.00
211.68	3598.00
212.15	3532.00
212.63	3659.00
213.11	3572.00
213.58	3542.00
214.06	3669.00
214.53	3603.00
215.01	3610.00
215.49	3613.00
215.96	3634.00
216.44	3616.00
216.92	3610.00
217.39	3569.00
217.87	3541.00
218.35	3597.00
218.82	3515.00
219.30	3540.00
219.77	3554.00
220.25	3567.00
220.73	3663.00
221.20	3548.00
221.68	3621.00
222.15	3532.00
222.63	3597.00
223.11	3565.00
223.58	3607.00
224.06	3567.00
224.53	3552.00
225.01	3527.00
225.49	3567.00
225.96	3534.00
226.44	3587.00
226.91	3613.00
227.39	3531.00
227.87	3669.00
228.34	3589.00
228.82	3601.00
229.29	3605.00
229.77	3567.00
230.24	3577.00
230.72	3608.00
231.20	3606.00
231.67	3521.00
232.15	3593.00
232.62	3499.00
233.10	3543.00
233.57	3558.00
234.05	3685.00
234.53	3596.00
235.00	3575.00
235.48	3543.00
235.95	3587.00
236.43	3627.00
236.90	3689.00
237.38	3552.00
237.85	3559.00
238.33	3566.00
238.80	3571.00
239.28	3538.00
239.75	3538.00
240.23	3609.00
240.71	3655.00
241.18	3569.00
241.66	3593.00
242.13	3591.00
242.61	3625.00
243.08	3521.00
243.56	3574.00
244.03	3606.00
244.51	3633.00
244.98	3585.00
245.46	3632.00
245.93	5490.00
246.41	3531.00
246.88	3581.00
247.36	3604.00
247.83	3574.00
248.31	3629.00
248.78	3558.00
249.26	3609.00
249.73	3676.00
250.21	3618.00
250.68	3632.00
251.16	3556.00
251.63	3707.00
252.10	3662.00
252.58	3559.00
253.05	3672.00
253.53	3627.00
254.00	3541.00
254.48	3599.00
254.95	3614.00
255.43	3609.00
255.90	3590.00
256.38	3632.00
256.85	3620.00
257.33	3642.00
257.80	3734.00
258.27	3607.00
258.75	3591.00
259.22	3591.00
259.70	3599.00
260.17	3667.00
260.65	3581.00
261.12	3609.00
261.59	3649.00
262.07	3606.00
262.54	3656.00
263.02	3616.00
263.49	3581.00
263.97	3612.00
264.44	3634.00
264.91	3616.00
265.39	3578.00
265.86	3625.00
266.34	3664.00
266.81	3625.00
267.28	3623.00
267.76	3608.00
268.23	3649.00
268.71	3503.00
269.18	3568.00
269.65	3615.00
270.13	3599.00
270.60	3664.00
271.08	3566.00
271.55	3637.00
272.02	3581.00
272.50	3562.00
272.97	3549.00
273.44	3588.00
273.92	3766.00
274.39	3585.00
274.87	3610.00
275.34	3544.00
275.81	3560.00
276.29	3549.00
276.76	3587.00
277.23	3502.00
277.71	3521.00
278.18	3444.00
278.65	3645.00
279.13	3501.00
279.60	3581.00
280.07	3851.00
280.55	3859.00
281.02	3919.00
281.50	3658.00
281.97	3720.00
282.44	3649.00
282.91	3612.00
283.39	3673.00
283.86	3648.00
284.33	3591.00
284.81	3672.00
285.28	3617.00
285.75	3641.00
286.23	3642.00
286.70	3599.00
287.17	3609.00
287.65	3718.00
288.12	3609.00
288.59	3633.00
289.07	3576.00
289.54	3675.00
290.01	3588.00
290.48	3663.00
290.96	3561.00
291.43	3644.00
291.90	3737.00
292.38	3563.00
292.85	3589.00
293.32	3564.00
293.79	3666.00
294.27	3605.00
294.74	3562.00
295.21	3625.00
295.69	3601.00
296.16	3759.00
296.63	3717.00
297.10	3627.00
297.58	3682.00
298.05	3642.00
298.52	3591.00
298.99	3725.00
299.47	3609.00
299.94	3645.00
300.41	3586.00
300.88	3641.00
301.36	3665.00
301.83	3667.00
302.30	3602.00
302.77	3661.00
303.25	3647.00
303.72	3603.00
304.19	3575.00
304.66	3591.00
305.13	3631.00
305.61	3611.00
306.08	3590.00
306.55	3617.00
307.02	3610.00
307.49	3565.00
307.97	3584.00
308.44	3591.00
308.91	3620.00
309.38	3661.00
309.86	3657.00
310.33	3603.00
310.80	3645.00
311.27	3602.00
311.74	3645.00
312.21	3625.00
312.69	3725.00
313.16	3580.00
313.63	3626.00
314.10	3615.00
314.57	3600.00
315.05	3603.00
315.52	3663.00
315.99	3657.00
316.46	3639.00
316.93	3637.00
317.40	3643.00
317.88	3765.00
318.35	3621.00
318.82	3624.00
319.29	3604.00
319.76	3649.00
320.23	3702.00
320.70	3681.00
321.18	3647.00
321.65	3549.00
322.12	3579.00
322.59	3699.00
323.06	3623.00
323.53	3732.00
324.00	3575.00
324.48	3645.00
324.95	3637.00
325.42	3675.00
325.89	3631.00
326.36	3662.00
326.83	3667.00
327.30	3709.00
327.77	3709.00
328.24	3677.00
328.72	3654.00
329.19	3651.00
329.66	3645.00
330.13	3639.00
330.60	3763.00
331.07	3675.00
331.54	3777.00
332.01	3641.00
332.48	3726.00
332.95	3716.00
333.43	3726.00
333.90	3736.00
334.37	3703.00
334.84	3689.00
335.31	3829.00
335.78	3614.00
336.25	3623.00
336.72	3653.00
337.19	3674.00
337.66	3609.00
338.13	3607.00
338.60	3659.00
339.07	3658.00
339.54	3535.00
340.01	3560.00
340.49	3565.00
340.96	3609.00
341.43	3641.00
341.90	3536.00
342.37	3600.00
342.84	3645.00
343.31	3623.00
343.78	3558.00
344.25	3580.00
344.72	3545.00
345.19	3564.00
345.66	3583.00
346.13	3567.00
346.60	3555.00
347.07	3691.00
347.54	3607.00
348.01	3677.00
348.48	3577.00
348.95	3562.00
349.42	3609.00
349.89	3612.00
350.36	3597.00
350.83	3535.00
351.30	3575.00
351.77	3658.00
352.24	3640.00
352.71	3617.00
353.18	3629.00
353.65	3622.00
354.12	3637.00
354.59	3616.00
355.06	3591.00
355.53	3657.00
356.00	3600.00
356.47	3651.00
356.94	3581.00
357.41	3716.00
357.88	3635.00
358.35	3543.00
358.82	3623.00
359.28	3625.00
359.75	3559.00
360.22	3588.00
360.69	3695.00
361.16	3591.00
361.63	3592.00
362.10	3605.00
362.57	3613.00
363.04	3607.00
363.51	3691.00
363.98	3672.00
364.45	3581.00
364.92	3657.00
365.39	3581.00
365.86	3572.00
366.32	3619.00
366.79	3623.00
367.26	4529.00
367.73	3953.00
368.20	3599.00
368.67	3633.00
369.14	3575.00
369.61	3707.00
370.08	3609.00
370.55	3653.00
371.02	4527.00
371.48	3651.00
371.95	3565.00
372.42	3605.00
372.89	3633.00
373.36	3636.00
373.83	3560.00
374.30	3593.00
374.77	3663.00
375.23	3553.00
375.70	3677.00
376.17	3615.00
376.64	3585.00
377.11	3593.00
377.58	3679.00
378.05	3643.00
378.51	3635.00
378.98	3648.00
379.45	3617.00
379.92	3687.00
380.39	3720.00
380.86	3612.00
381.33	3703.00
381.79	3711.00
382.26	3576.00
382.73	3623.00
383.20	3601.00
383.67	3687.00
384.14	3623.00
384.60	3847.00
385.07	3657.00
385.54	3589.00
386.01	3635.00
386.48	3705.00
386.94	3583.00
387.41	3589.00
387.88	3671.00
388.35	3627.00
388.82	3694.00
389.28	3625.00
389.75	3684.00
390.22	3665.00
390.69	3661.00
391.16	3639.00
391.62	3636.00
392.09	3643.00
392.56	3595.00
393.03	3614.00
393.50	3790.00
393.96	3625.00
394.43	3663.00
394.90	3653.00
395.37	3685.00
395.83	3859.00
396.30	3599.00
396.77	3640.00
397.24	3697.00
397.70	3646.00
398.17	3645.00
398.64	3627.00
399.11	3625.00
399.57	3720.00
400.04	3635.00
400.51	3655.00
400.98	3650.00
401.44	3646.00
401.91	3673.00
402.38	3643.00
402.84	3614.00
403.31	3734.00
403.78	3677.00
404.25	3754.00
404.71	3765.00
405.18	3766.00
405.65	3637.00
406.12	3718.00
406.58	3707.00
407.05	3805.00
407.52	3751.00
407.98	4209.00
408.45	3711.00
408.92	3681.00
409.38	3782.00
409.85	3714.00
410.32	3776.00
410.78	3721.00
411.25	3826.00
411.72	3763.00
412.18	3682.00
412.65	3830.00
413.12	3764.00
413.59	3819.00
414.05	3874.00
414.52	3925.00
414.98	3838.00
415.45	3932.00
415.92	3870.00
416.38	3887.00
416.85	3907.00
417.32	3915.00
417.78	3919.00
418.25	3935.00
418.72	3917.00
419.18	3979.00
419.65	3943.00
420.12	4019.00
420.58	3959.00
421.05	4024.00
421.51	3972.00
421.98	4029.00
422.45	3972.00
422.91	4026.00
423.38	4027.00
423.85	4085.00
424.31	4071.00
424.78	4140.00
425.24	4052.00
425.71	4165.00
426.18	4095.00
426.64	4130.00
427.11	4159.00
427.57	4195.00
428.04	4075.00
428.51	4181.00
428.97	4161.00
429.44	4095.00
429.90	4059.00
430.37	4231.00
430.83	4132.00
431.30	4243.00
431.77	4369.00
432.23	4321.00
432.70	4267.00
433.16	4284.00
433.63	4255.00
434.09	4269.00
434.56	4405.00
435.03	4355.00
435.49	4415.00
435.96	4417.00
436.42	4465.00
436.89	4483.00
437.35	4386.00
437.82	4458.00
438.28	4372.00
438.75	4415.00
439.21	4608.00
439.68	4479.00
440.14	4555.00
440.61	4580.00
441.07	4509.00
441.54	4566.00
442.00	4767.00
442.47	4615.00
442.94	4633.00
443.40	4672.00
443.87	4619.00
444.33	4740.00
444.80	4745.00
445.26	4668.00
445.73	4700.00
446.19	4770.00
446.65	4722.00
447.12	4855.00
447.58	4881.00
448.05	4820.00
448.51	4875.00
448.98	4933.00
449.44	4930.00
449.91	4965.00
450.37	5027.00
450.84	5025.00
451.30	5037.00
451.77	5026.00
452.23	4929.00
452.70	5013.00
453.16	5045.00
453.62	5027.00
454.09	5096.00
454.55	5079.00
455.02	5119.00
455.48	5106.00
455.95	5191.00
456.41	5132.00
456.88	5183.00
457.34	5127.00
457.80	5152.00
458.27	5043.00
458.73	5137.00
459.20	5172.00
459.66	5132.00
460.13	5106.00
460.59	5130.00
461.05	5308.00
461.52	5212.00
461.98	5154.00
462.45	5171.00
462.91	5279.00
463.37	5216.00
463.84	5167.00
464.30	5173.00
464.76	5147.00
465.23	5168.00
465.69	5245.00
466.16	5165.00
466.62	5113.00
467.08	5197.00
467.55	5213.00
468.01	5211.00
468.48	5185.00
468.94	5243.00
469.40	5131.00
469.87	5175.00
470.33	5158.00
470.79	5187.00
471.26	5271.00
471.72	5306.00
472.18	5316.00
472.65	5306.00
473.11	5329.00
473.57	5324.00
474.04	5321.00
474.50	5409.00
474.96	5330.00
475.43	5409.00
475.89	5343.00
476.35	5371.00
476.82	5338.00
477.28	5416.00
477.74	5537.00
478.21	5412.00
478.67	5507.00
479.13	5455.00
479.59	5586.00
480.06	5514.00
480.52	5530.00
480.98	5509.00
481.45	5527.00
481.91	5533.00
482.37	5551.00
482.84	5517.00
483.30	5552.00
483.76	5501.00
484.22	5600.00
484.69	5442.00
485.15	5372.00
485.61	5144.00
486.07	5159.00
486.54	5252.00
487.00	5377.00
487.46	5362.00
487.92	5470.00
488.39	5513.00
488.85	5548.00
489.31	5573.00
489.77	5723.00
490.24	5667.00
490.70	5693.00
491.16	5564.00
491.62	5563.00
492.09	5647.00
492.55	5782.00
493.01	5825.00
493.47	5761.00
493.94	5903.00
494.40	5929.00
494.86	5907.00
495.32	5860.00
495.78	5966.00
496.25	5997.00
496.71	6062.00
497.17	6187.00
497.63	6127.00
498.09	6015.00
498.56	6165.00
499.02	6142.00
499.48	6351.00
499.94	6181.00
500.40	6266.00
500.87	6303.00
501.33	6253.00
501.79	6426.00
502.25	6537.00
502.71	6942.00
503.17	6645.00
503.64	6731.00
504.10	6753.00
504.56	6905.00
505.02	6991.00
505.48	7222.00
505.94	7340.00
506.40	7337.00
506.87	7407.00
507.33	7537.00
507.79	7518.00
508.25	7655.00
508.71	7858.00
509.17	8003.00
509.63	8079.00
510.10	8161.00
510.56	8283.00
511.02	8585.00
511.48	8796.00
511.94	8771.00
512.40	8895.00
512.86	9014.00
513.32	9203.00
513.78	9108.00
514.25	9415.00
514.71	10341.00
515.17	9850.00
515.63	10092.00
516.09	9949.00
516.55	9628.00
517.01	9867.00
517.47	10435.00
517.93	10563.00
518.39	10958.00
518.85	11281.00
519.32	11661.00
519.78	12047.00
520.24	12217.00
520.70	12553.00
521.16	13008.00
521.62	13346.00
522.08	13549.00
522.54	13495.00
523.00	14051.00
523.46	14515.00
523.92	14946.00
524.38	15251.00
524.84	15209.00
525.30	15536.00
525.76	15481.00
526.22	15047.00
526.68	14965.00
527.14	15707.00
527.60	16395.00
528.06	16755.00
528.52	17408.00
528.98	17677.00
529.44	17625.00
529.90	17917.00
530.36	18275.00
530.82	18741.00
531.28	18912.00
531.74	18664.00
532.20	18337.00
532.66	18203.00
533.12	18884.00
533.58	19255.00
534.04	19397.00
534.50	19712.00
534.96	19975.00
535.42	20487.00
535.88	20454.00
536.34	20038.00
536.80	19792.00
537.26	20280.00
537.72	20814.00
538.18	20727.00
538.64	20839.00
539.10	20669.00
539.56	20693.00
540.02	20383.00
540.48	20529.00
540.94	20813.00
541.40	21239.00
541.86	21469.00
542.32	21399.00
542.78	21475.00
543.24	21720.00
543.69	21961.00
544.15	22240.00
544.61	22123.00
545.07	22503.00
545.53	22401.00
545.99	22436.00
546.45	22627.00
546.91	22672.00
547.37	22428.00
547.83	22441.00
548.29	22918.00
548.74	23004.00
549.20	23195.00
549.66	23527.00
550.12	23316.00
550.58	23297.00
551.04	23436.00
551.50	23807.00
551.96	23958.00
552.42	23472.00
552.87	23488.00
553.33	23837.00
553.79	24066.00
554.25	24070.00
554.71	24362.00
555.17	24281.00
555.63	24178.00
556.08	23855.00
556.54	23695.00
557.00	23413.00
557.46	23661.00
557.92	23858.00
558.38	23190.00
558.83	22871.00
559.29	23127.00
559.75	23119.00
560.21	23346.00
560.67	23767.00
561.13	23338.00
561.58	22956.00
562.04	22877.00
562.50	23053.00
562.96	23305.00
563.42	23044.00
563.87	22760.00
564.33	22933.00
564.79	22641.00
565.25	22334.00
565.71	22036.00
566.16	21966.00
566.62	22080.00
567.08	22156.00
567.54	22066.00
568.00	21690.00
568.45	21361.00
568.91	21164.00
569.37	21264.00
569.83	20846.00
570.28	20398.00
570.74	20097.00
571.20	20214.00
571.66	20520.00
572.11	20649.00
572.57	20454.00
573.03	20228.00
573.49	20300.00
573.94	20165.00
574.40	19872.00
574.86	19553.00
575.32	19173.00
575.77	19209.00
576.23	19028.00
576.69	19323.00
577.15	19005.00
577.60	18853.00
578.06	18414.00
578.52	18451.00
578.97	18345.00
579.43	18467.00
579.89	18430.00
580.34	18505.00
580.80	18311.00
581.26	18293.00
581.72	18252.00
582.17	18211.00
582.63	18281.00
583.09	18110.00
583.54	18127.00
584.00	18123.00
584.46	18047.00
584.91	17698.00
585.37	17648.00
585.83	17266.00
586.28	17493.00
586.74	17289.00
587.20	17385.00
587.65	17237.00
588.11	16749.00
588.57	16100.00
589.02	15340.00
589.48	15560.00
589.94	15943.00
590.39	16544.00
590.85	16427.00
591.30	16389.00
591.76	16386.00
592.22	16493.00
592.67	16455.00
593.13	16363.00
593.59	16415.00
594.04	16339.00
594.50	16145.00
594.95	16231.00
595.41	16147.00
595.87	16251.00
596.32	16585.00
596.78	16392.00
597.23	16314.00
597.69	16091.00
598.15	16111.00
598.60	16107.00
599.06	16241.00
599.51	16081.00
599.97	16204.00
600.43	15985.00
600.88	15974.00
601.34	16008.00
601.79	15718.00
602.25	15783.00
602.70	15828.00
603.16	15967.00
603.61	15939.00
604.07	15935.00
604.53	16068.00
604.98	15786.00
605.44	15777.00
605.89	15631.00
606.35	15517.00
606.80	15549.00
607.26	15403.00
607.71	15343.00
608.17	15235.00
608.62	14999.00
609.08	15033.00
609.53	14828.00
609.99	14761.00
610.44	14514.00
610.90	14656.00
611.35	14619.00
611.81	14640.00
612.26	14349.00
612.72	14386.00
613.17	14328.00
613.63	13877.00
614.08	13897.00
614.54	13972.00
614.99	13951.00
615.45	13770.00
615.90	13472.00
616.36	13369.00
616.81	13439.00
617.27	13457.00
617.72	13569.00
618.18	13567.00
618.63	13425.00
619.09	13238.00
619.54	13500.00
619.99	13409.00
620.45	13484.00
620.90	13438.00
621.36	13176.00
621.81	13323.00
622.27	13216.00
622.72	13010.00
623.18	12948.00
623.63	12939.00
624.08	12922.00
624.54	12657.00
624.99	12744.00
625.45	12745.00
625.90	12687.00
626.35	12942.00
626.81	12846.00
627.26	12744.00
627.72	12607.00
628.17	12684.00
628.62	12668.00
629.08	12738.00
629.53	12661.00
629.99	12631.00
630.44	12637.00
630.89	12682.00
631.35	12637.00
631.80	12616.00
632.26	12683.00
632.71	12688.00
633.16	12695.00
633.62	12542.00
634.07	12563.00
634.52	12600.00
634.98	12661.00
635.43	12623.00
635.88	12344.00
636.34	12409.00
636.79	12548.00
637.24	12425.00
637.70	12512.00
638.15	12280.00
638.60	12283.00
639.06	12062.00
639.51	11932.00
639.96	11723.00
640.42	11741.00
640.87	11689.00
641.32	11410.00
641.78	11391.00
642.23	11268.00
642.68	11220.00
643.14	11126.00
643.59	11157.00
644.04	10859.00
644.49	10743.00
644.95	10624.00
645.40	10501.00
645.85	10389.00
646.31	10273.00
646.76	10224.00
647.21	10073.00
647.66	9897.00
648.12	9841.00
648.57	9728.00
649.02	9667.00
649.47	9429.00
649.93	9613.00
650.38	9701.00
650.83	9568.00
651.28	9520.00
651.74	9301.00
652.19	9418.00
652.64	9527.00
653.09	9347.00
653.55	9303.00
654.00	9305.00
654.45	9085.00
654.90	8951.00
655.35	8706.00
655.81	8436.00
656.26	7907.00
656.71	8181.00
657.16	8470.00
657.62	8694.00
658.07	8619.00
658.52	8549.00
658.97	8531.00
659.42	8553.00
659.88	8303.00
660.33	8337.00
660.78	8209.00
661.23	8131.00
661.68	8101.00
662.13	8062.00
662.59	7914.00
663.04	7804.00
663.49	7667.00
663.94	7583.00
664.39	7547.00
664.84	7511.00
665.30	7444.00
665.75	7342.00
666.20	7233.00
666.65	7148.00
667.10	7179.00
667.55	7127.00
668.00	6974.00
668.46	7024.00
668.91	6905.00
669.36	6986.00
669.81	6763.00
670.26	6779.00
670.71	6835.00
671.16	6678.00
671.61	6786.00
672.06	6684.00
672.52	6594.00
672.97	6612.00
673.42	6669.00
673.87	6779.00
674.32	6615.00
674.77	6580.00
675.22	6446.00
675.67	6450.00
676.12	6526.00
676.57	6534.00
677.02	6575.00
677.47	6491.00
677.93	6671.00
678.38	6455.00
678.83	6501.00
679.28	6547.00
679.73	6563.00
680.18	6633.00
680.63	6650.00
681.08	6599.00
681.53	6607.00
681.98	6644.00
682.43	6793.00
682.88	6818.00
683.33	6958.00
683.78	6926.00
684.23	6987.00
684.68	7131.00
685.13	7223.00
685.58	7315.00
686.03	7383.00
686.48	7161.00
686.93	6905.00
687.38	6951.00
687.83	7530.00
688.28	7887.00
688.73	8269.00
689.18	8481.00
689.63	8706.00
690.08	9170.00
690.53	9539.00
690.98	9930.00
691.43	10539.00
691.88	10922.00
692.33	11403.00
692.78	11969.00
693.23	12441.00
693.68	13054.00
694.13	13511.00
694.58	14164.00
695.03	15058.00
695.48	15675.00
695.93	16453.00
696.38	17463.00
696.83	18102.00
697.28	18863.00
697.72	19289.00
698.17	19950.00
698.62	20619.00
699.07	21189.00
699.52	22002.00
699.97	22492.00
700.42	23197.00
700.87	24028.00
701.32	24699.00
701.77	25159.00
702.22	25893.00
702.67	26483.00
703.11	27781.00
703.56	28537.00
704.01	29363.00
704.46	30375.00
704.91	30843.00
705.36	31573.00
705.81	31943.00
706.26	32497.00
706.70	33154.00
707.15	34075.00
707.60	34673.00
708.05	35408.00
708.50	36079.00
708.95	36565.00
709.40	36987.00
709.84	37615.00
710.29	38065.00
710.74	38496.00
711.19	39103.00
711.64	39497.00
712.09	40060.00
712.53	40477.00
712.98	41071.00
713.43	41470.00
713.88	41967.00
714.33	42131.00
714.78	42085.00
715.22	42431.00
715.67	42699.00
716.12	42117.00
716.57	40588.00
717.02	39216.00
717.46	38079.00
717.91	37927.00
718.36	37004.00
718.81	36896.00
719.26	37098.00
719.70	37838.00
720.15	38286.00
720.60	39971.00
721.05	42904.00
721.49	44740.00
721.94	45518.00
722.39	45534.00
722.84	44579.00
723.28	42796.00
723.73	42541.00
724.18	42595.00
724.63	43169.00
725.07	43373.00
725.52	43939.00
725.97	44677.00
726.42	45321.00
726.86	45895.00
727.31	45116.00
727.76	45281.00
728.21	46142.00
728.65	46148.00
729.10	45938.00
729.55	47209.00
729.99	47927.00
730.44	48430.00
730.89	48720.00
731.33	49490.00
731.78	50675.00
732.23	52098.00
732.68	52836.00
733.12	53531.00
733.57	54728.00
734.02	55423.00
734.46	55905.00
734.91	55752.00
735.36	56042.00
735.80	56355.00
736.25	56602.00
736.70	56925.00
737.14	57564.00
737.59	57715.00
738.04	57746.00
738.48	57265.00
738.93	57348.00
739.37	58045.00
739.82	58915.00
740.27	59110.00
740.71	58946.00
741.16	58717.00
741.61	59130.00
742.05	59366.00
742.50	59690.00
742.94	60184.00
743.39	60454.00
743.84	60381.00
744.28	60307.00
744.73	60346.00
745.18	60950.00
745.62	61533.00
746.07	61169.00
746.51	61324.00
746.96	61233.00
747.40	60905.00
747.85	60771.00
748.30	60874.00
748.74	60527.00
749.19	60351.00
749.63	60623.00
750.08	60668.00
750.52	60665.00
750.97	60437.00
751.42	60560.00
751.86	60660.00
752.31	60539.00
752.75	60267.00
753.20	60230.00
753.64	60237.00
754.09	60468.00
754.53	60550.00
754.98	60461.00
755.42	60281.00
755.87	60342.00
756.31	59722.00
756.76	59354.00
757.20	58914.00
757.65	58412.00
758.09	57649.00
758.54	55737.00
758.98	49935.00
759.43	39374.00
759.87	27886.00
760.32	20751.00
760.76	20505.00
761.21	25297.00
761.65	31235.00
762.10	32929.00
762.54	31359.00
762.99	29647.00
763.43	30437.00
763.88	32488.00
764.32	35205.00
764.77	38474.00
765.21	41506.00
765.66	43776.00
766.10	46201.00
766.54	48623.00
766.99	51196.00
767.43	52762.00
767.88	53992.00
768.32	55217.00
768.77	55801.00
769.21	56779.00
769.66	57493.00
770.10	58088.00
770.54	58465.00
770.99	58495.00
771.43	58249.00
771.88	58171.00
772.32	58331.00
772.76	58072.00
773.21	58088.00
773.65	57835.00
774.10	57552.00
774.54	57246.00
774.98	57888.00
775.43	58348.00
775.87	58949.00
776.31	58844.00
776.76	58916.00
777.20	58678.00
777.65	58081.00
778.09	57703.00
778.53	57656.00
778.98	57457.00
779.42	57248.00
779.86	57192.00
780.31	57277.00
780.75	57732.00
781.19	57802.00
781.64	58023.00
782.08	58151.00
782.52	57623.00
782.97	57107.00
783.41	56642.00
783.85	56412.00
784.30	56008.00
784.74	55970.00
785.18	55931.00
785.63	55838.00
786.07	55912.00
786.51	56007.00
786.95	55921.00
787.40	55637.00
787.84	55469.00
788.28	54922.00
788.73	54908.00
789.17	54271.00
789.61	53550.00
790.05	53684.00
790.50	52858.00
790.94	52984.00
791.38	52943.00
791.82	53069.00
792.27	53005.00
792.71	53176.00
793.15	53469.00
793.59	53126.00
794.04	52914.00
794.48	52593.00
794.92	52135.00
795.36	51898.00
795.81	51539.00
796.25	51210.00
796.69	51308.00
797.13	52047.00
797.57	52342.00
798.02	52926.00
798.46	52872.00
798.90	52545.00
799.34	52003.00
799.79	51673.00
800.23	50815.00
800.67	50517.00
801.11	50379.00
801.55	50065.00
801.99	49716.00
802.44	50171.00
802.88	50612.00
803.32	50971.00
803.76	51035.00
804.20	51219.00
804.64	51140.00
805.09	51019.00
805.53	50970.00
805.97	50409.00
806.41	49609.00
806.85	49353.00
807.29	48956.00
807.74	48741.00
808.18	48558.00
808.62	48829.00
809.06	48574.00
809.50	48807.00
809.94	48854.00
810.38	48977.00
810.82	49116.00
811.27	48668.00
811.71	47550.00
812.15	46944.00
812.59	45423.00
813.03	44696.00
813.47	42886.00
813.91	41733.00
814.35	41106.00
814.79	40771.00
815.23	40528.00
815.67	39949.00
816.12	40188.00
816.56	39932.00
817.00	39961.00
817.44	40648.00
817.88	40657.00
818.32	39952.00
818.76	40244.00
819.20	40174.00
819.64	40529.00
820.08	41014.00
820.52	42144.00
820.96	42970.00
821.40	42214.00
821.84	40763.00
822.28	38596.00
822.72	38288.00
823.16	38084.00
823.60	40289.00
824.04	42763.00
824.48	43488.00
824.92	43846.00
825.36	43330.00
825.80	42615.00
826.24	42401.00
826.68	42033.00
827.12	42020.00
827.56	40951.00
828.00	41003.00
828.44	41420.00
828.88	41993.00
829.32	42416.00
829.76	42479.00
830.20	43053.00
830.64	42520.00
831.08	42167.00
831.52	41672.00
831.96	41169.00
832.40	40669.00
832.84	41232.00
833.28	41715.00
833.72	42416.00
834.16	42977.00
834.60	44327.00
835.04	44860.00
835.48	45072.00
835.91	44978.00
836.35	44749.00
836.79	44343.00
837.23	44222.00
837.67	43522.00
838.11	43352.00
838.55	43576.00
838.99	43450.00
839.43	43714.00
839.87	44496.00
840.30	44978.00
840.74	45561.00
841.18	45914.00
841.62	46140.00
842.06	46201.00
842.50	46051.00
842.94	45435.00
843.38	44852.00
843.81	44016.00
844.25	43279.00
844.69	43494.00
845.13	43129.00
845.57	43420.00
846.01	43580.00
846.45	43944.00
846.88	44466.00
847.32	45001.00
847.76	45551.00
848.20	45616.00
848.64	45149.00
849.08	44365.00
849.51	44432.00
849.95	43325.00
850.39	43253.00
850.83	43781.00
851.27	43625.00
851.70	42796.00
852.14	42443.00
852.58	41791.00
853.02	40189.00
853.46	39171.00
853.89	39350.00
854.33	39198.00
854.77	40893.00
855.21	43487.00
855.65	44576.00
856.08	45174.00
856.52	45205.00
856.96	45167.00
857.40	44124.00
857.83	43379.00
858.27	42605.00
858.71	41953.00
859.15	41991.00
859.58	42011.00
860.02	42559.00
860.46	43183.00
860.89	43968.00
861.33	44360.00
861.77	44783.00
862.21	45299.00
862.64	45152.00
863.08	45147.00
863.52	44751.00
863.95	43909.00
864.39	43083.00
864.83	41639.00
865.27	39604.00
865.70	39298.00
866.14	38433.00
866.58	38514.00
867.01	40562.00
867.45	41906.00
867.89	42858.00
868.32	43723.00
868.76	44165.00
869.20	44327.00
869.63	44464.00
870.07	43727.00
870.51	42919.00
870.94	42008.00
871.38	41094.00
871.82	40419.00
872.25	40055.00
872.69	39966.00
873.13	40102.00
873.56	40818.00
874.00	41190.00
874.43	41888.00
874.87	42387.00
875.31	42936.00
875.74	43080.00
876.18	43507.00
876.61	43265.00
877.05	42779.00
877.49	42263.00
877.92	41799.00
878.36	41023.00
878.79	40389.00
879.23	39461.00
879.67	38884.00
880.10	38954.00
880.54	38876.00
880.97	39392.00
881.41	40770.00
881.84	41844.00
882.28	42299.00
882.72	43164.00
883.15	43602.00
883.59	43646.00
884.02	43398.00
884.46	43181.00
884.89	42428.00
885.33	41485.00
885.76	40266.00
886.20	39379.00
886.63	39023.00
887.07	38404.00
887.50	38686.00
887.94	38997.00
888.37	39231.00
888.81	39777.00
889.24	40156.00
889.68	40760.00
890.11	41140.00
890.55	41784.00
890.98	41941.00
891.42	41908.00
891.85	41740.00
892.29	41216.00
892.72	39905.00
893.16	38852.00
893.59	37987.00
894.03	36724.00
894.46	35480.00
894.90	34346.00
895.33	32867.00
895.77	33083.00
896.20	32573.00
896.63	32733.00
897.07	32950.00
897.50	32627.00
897.94	32763.00
898.37	34167.00
898.81	32245.00
899.24	31884.00
899.68	33557.00
900.11	32684.00
900.54	31926.00
900.98	31649.00
901.41	31269.00
901.85	31588.00
902.28	31784.00
902.71	32095.00
903.15	33291.00
903.58	34265.00
904.02	34180.00
904.45	34095.00
904.88	33983.00
905.32	33865.00
905.75	33740.00
906.18	32821.00
906.62	32696.00
907.05	32049.00
907.48	32073.00
907.92	31780.00
908.35	31929.00
908.79	31206.00
909.22	30807.00
909.65	30289.00
910.09	30337.00
910.52	29760.00
910.95	30233.00
911.38	30437.00
911.82	29052.00
912.25	29928.00
912.68	30383.00
913.12	30358.00
913.55	30544.00
913.98	31486.00
914.42	32798.00
914.85	33242.00
915.28	31481.00
915.72	31235.00
916.15	30625.00
916.58	30892.00
917.01	29720.00
917.45	28837.00
917.88	29843.00
918.31	30325.00
918.74	31453.00
919.18	31855.00
919.61	31774.00
920.04	32642.00
920.47	32960.00
920.91	33020.00
921.34	33083.00
921.77	33171.00
922.20	33819.00
922.64	33495.00
923.07	33449.00
923.50	32750.00
923.93	32443.00
924.37	31882.00
924.80	31560.00
925.23	31128.00
925.66	29824.00
926.09	28415.00
926.53	27778.00
926.96	26958.00
927.39	25671.00
927.82	24381.00
928.25	23275.00
928.69	22984.00
929.12	22567.00
929.55	21424.00
929.98	20557.00
930.41	19305.00
930.84	18215.00
931.28	17005.00
931.71	15528.00
932.14	14059.00
932.57	13461.00
933.00	12925.00
933.43	12232.00
933.86	11551.00
934.30	10940.00
934.73	12438.00
935.16	11783.00
935.59	11046.00
936.02	11801.00
936.45	11374.00
936.88	11443.00
937.31	12703.00
937.75	13194.00
938.18	13927.00
938.61	14629.00
939.04	15351.00
939.47	15135.00
939.90	14011.00
940.33	13532.00
940.76	12577.00
941.19	11912.00
941.62	11806.00
942.05	11547.00
942.48	10398.00
942.91	10347.00
943.35	11065.00
943.78	10239.00
944.21	10064.00
944.64	11101.00
945.07	11395.00
945.50	11185.00
945.93	11408.00
946.36	11813.00
946.79	12239.00
947.22	12933.00
947.65	12608.00
948.08	12115.00
948.51	12923.00
948.94	13335.00
949.37	12695.00
949.80	12030.00
950.23	12468.00
950.66	13117.00
951.09	12910.00
951.52	12299.00
951.95	12345.00
952.38	12829.00
952.81	13638.00
953.24	14481.00
953.67	14649.00
954.10	14543.00
954.53	15228.00
954.96	14958.00
955.39	15544.00
955.82	16451.00
956.25	15786.00
956.68	16067.00
957.11	16564.00
957.53	15863.00
957.96	15784.00
958.39	15456.00
958.82	14892.00
959.25	15392.00
959.68	16181.00
960.11	16373.00
960.54	16503.00
960.97	17693.00
961.40	18125.00
961.83	17897.00
962.26	18284.00
962.68	19852.00
963.11	20100.00
963.54	20197.00
963.97	20404.00
964.40	20205.00
964.83	20973.00
965.26	20962.00
965.69	20926.00
966.11	20561.00
966.54	20967.00
966.97	21745.00
967.40	21877.00
967.83	21983.00
968.26	22059.00
968.69	22125.00
969.11	22328.00
969.54	22200.00
969.97	22360.00
970.40	22715.00
970.83	22742.00
971.26	22947.00
971.68	23005.00
972.11	23136.00
972.54	23493.00
972.97	23408.00
973.40	22998.00
973.82	23060.00
974.25	22993.00
974.68	22552.00
975.11	22343.00
975.54	21962.00
975.96	21541.00
976.39	21682.00
976.82	21781.00
977.25	21303.00
977.67	21263.00
978.10	21489.00
978.53	21896.00
978.96	22434.00
979.38	22857.00
979.81	23143.00
980.24	23929.00
980.67	24352.00
981.09	24567.00
981.52	24935.00
981.95	24845.00
982.38	25136.00
982.80	25380.00
983.23	25477.00
983.66	25540.00
984.08	25320.00
984.51	24902.00
984.94	24788.00
985.37	24546.00
985.79	24053.00
986.22	23498.00
986.65	23299.00
987.07	23034.00
987.50	23111.00
987.93	22994.00
988.35	23233.00
988.78	23213.00
989.21	23530.00
989.63	23796.00
990.06	24469.00
990.49	24592.00
990.91	24987.00
991.34	25116.00
991.77	25221.00
992.19	25115.00
992.62	25109.00
993.05	25091.00
993.47	24837.00
993.90	24429.00
994.32	24139.00
994.75	23544.00
995.18	23203.00
995.60	23090.00
996.03	22627.00
996.45	22424.00
996.88	22071.00
997.31	22136.00
997.73	22103.00
998.16	22105.00
998.58	22282.00
999.01	22312.00
999.44	22733.00
999.86	23065.00
1000.29	23100.00
1000.71	23333.00
1001.14	23277.00
1001.56	23188.00
1001.99	23141.00
1002.41	22720.00
1002.84	22558.00
1003.27	21941.00
1003.69	21440.00
1004.12	20960.00
1004.54	20573.00
1004.97	20264.00
1005.39	20127.00
1005.82	19875.00
1006.24	19831.00
1006.67	19773.00
1007.09	19698.00
1007.52	19745.00
1007.94	19642.00
1008.37	19911.00
1008.79	19846.00
1009.22	19828.00
1009.64	20031.00
1010.07	20119.00
1010.49	20104.00
1010.92	20151.00
1011.34	20271.00
1011.77	20120.00
1012.19	19981.00
1012.62	19775.00
1013.04	19505.00
1013.46	19197.00
1013.89	18753.00
1014.31	18477.00
1014.74	18214.00
1015.16	17783.00
1015.59	17724.00
1016.01	17835.00
1016.44	17949.00
1016.86	18994.00
1017.28	18034.00
1017.71	18143.00
1018.13	18343.00
1018.56	18415.00
1018.98	18613.00
1019.40	18747.00
1019.83	18785.00
1020.25	19023.00
1020.68	18981.00
1021.10	19170.00
1021.52	19246.00
1021.95	19479.00
1022.37	19552.00
1022.79	19263.00
1023.22	19084.00
1023.64	18930.00
1024.07	18627.00
1024.49	18449.00
1024.91	18145.00
1025.34	18051.00
1025.76	17940.00
1026.18	17658.00
1026.61	17568.00
1027.03	17417.00
1027.45	17495.00
1027.88	17554.00
1028.30	17783.00
1028.72	17641.00
1029.15	17836.00
1029.57	17887.00
1029.99	18082.00
1030.41	17857.00
1030.84	17920.00
1031.26	17853.00
1031.68	17625.00
1032.11	17571.00
1032.53	17280.00
1032.95	17140.00
1033.37	16873.00
1033.80	16659.00
1034.22	16243.00
1034.64	16221.00
1035.06	15834.00
1035.49	15503.00
1035.91	15373.00
1036.33	15231.00
1036.75	15028.00
1037.18	15014.00
1037.60	14918.00
1038.02	14933.00
1038.44	14898.00
1038.87	14835.00
1039.29	14931.00
1039.71	14892.00
1040.13	14864.00
1040.55	15158.00
1040.98	15069.00
1041.40	14983.00
1041.82	14750.00
1042.24	14643.00
1042.66	14572.00
1043.09	14220.00
1043.51	14105.00
1043.93	13771.00
1044.35	13533.00
1044.77	13461.00
1045.20	13241.00
1045.62	12895.00
1046.04	12879.00
1046.46	12877.00
1046.88	12515.00
1047.30	12569.00
1047.72	12375.00
1048.15	12373.00
1048.57	12262.00
1048.99	12159.00
1049.41	12150.00
1049.83	12256.00
1050.25	12203.00
1050.67	12102.00
1051.09	12021.00
1051.52	11986.00
1051.94	11765.00
1052.36	11825.00
1052.78	11793.00
1053.20	11800.00
1053.62	11542.00
1054.04	11549.00
1054.46	11407.00
1054.88	11425.00
1055.30	11234.00
1055.72	11007.00
1056.14	10888.00
1056.57	10966.00
1056.99	10541.00
1057.41	10381.00
1057.83	10453.00
1058.25	10215.00
1058.67	10035.00
1059.09	10032.00
1059.51	9841.00
1059.93	9803.00
1060.35	9713.00
1060.77	9652.00
1061.19	9700.00
1061.61	9565.00
1062.03	9536.00
1062.45	9419.00
1062.87	9589.00
1063.29	9419.00
1063.71	9268.00
1064.13	9194.00
1064.55	9171.00
1064.97	9175.00
1065.39	9145.00
1065.81	9044.00
1066.23	8947.00
1066.65	8943.00
1067.07	8811.00
1067.49	8659.00
1067.91	8490.00
1068.33	8405.00
1068.75	8531.00
1069.17	8363.00
1069.59	8386.00
1070.00	8175.00
1070.42	8098.00
1070.84	8016.00
1071.26	7946.00
1071.68	7845.00
1072.10	7936.00
1072.52	7867.00
1072.94	7773.00
1073.36	7823.00
1073.78	7789.00
1074.20	7748.00
1074.62	7775.00
1075.03	7731.00
1075.45	7667.00
1075.87	7690.00
1076.29	7620.00
1076.71	7615.00
1077.13	7577.00
1077.55	7411.00
1077.97	7442.00
1078.38	7322.00
1078.80	7283.00
1079.22	7168.00
1079.64	7042.00
1080.06	7029.00
1080.48	6979.00
1080.89	6873.00
1081.31	6813.00
1081.73	6825.00
1082.15	6802.00
1082.57	6679.00
1082.99	6570.00
1083.40	6552.00
1083.82	6610.00
1084.24	6497.00
1084.66	6498.00
1085.08	6437.00
1085.49	6415.00
1085.91	6408.00
1086.33	7645.00
1086.75	6363.00
1087.17	6407.00
1087.58	6319.00
1088.00	6345.00
1088.42	6382.00
1088.84	6257.00
1089.25	6175.00
1089.67	6079.00
1090.09	6044.00
1090.51	6003.00
1090.92	5999.00
1091.34	5784.00
1091.76	5793.00
1092.18	5730.00
1092.59	5622.00
1093.01	5655.00
1093.43	5562.00
1093.84	5498.00
1094.26	5489.00
1094.68	5512.00
1095.10	5411.00
1095.51	5375.00
1095.93	5355.00
1096.35	5363.00
1096.76	5328.00
1097.18	5277.00
1097.60	5276.00
1098.01	5216.00
1098.43	5153.00
1098.85	5083.00
1099.26	5089.00
1099.68	5090.00
1100.10	4959.00
1100.51	4886.00
1100.93	4855.00
1101.35	4853.00
1101.76	4818.00
1102.18	5257.00
1102.60	4729.00
1103.01	4609.00
1103.43	4677.00
1103.84	4671.00
1104.26	4612.00
1104.68	4578.00
1105.09	4561.00
1105.51	4522.00
1105.92	4529.00
1106.34	4433.00
1106.76	4471.00
1107.17	4370.00
1107.59	4346.00
1108.00	4203.00
1108.42	4283.00
1108.83	4151.00
1109.25	4161.00
1109.67	4115.00
1110.08	4135.00
1110.50	4102.00
1110.91	4059.00
1111.33	4004.00
1111.74	3981.00
1112.16	3940.00
1112.57	3921.00
1112.99	3838.00
1113.41	3805.00
1113.82	3766.00
1114.24	3677.00
1114.65	3645.00
1115.07	3478.00
1115.48	3377.00
1115.90	2179.00
1116.31	2212.00
1116.73	2214.00
1117.14	2211.00
>>>>>End Processed Spectral Data<<<<<
