SpectraSuite Data File
++++++++++++++++++++++++++++++++++++
Date: Tue May 29 13:11:17 EEST 2018
User: CanSEE
Dark Spectrum Present: No
Reference Spectrum Present: No
Number of Sampled Component Spectra: 1
Spectrometers: MAYP11278
Integration Time (usec): 230000 (MAYP11278)
Spectra Averaged: 1 (MAYP11278)
Boxcar Smoothing: 0 (MAYP11278)
Correct for Electrical Dark: No (MAYP11278)
Strobe/Lamp Enabled: No (MAYP11278)
Correct for Detector Non-linearity: No (MAYP11278)
Correct for Stray Light: No (MAYP11278)
Number of Pixels in Processed Spectrum: 2068
>>>>>Begin Processed Spectral Data<<<<<
187.82	2343.00
188.30	2238.00
188.78	2209.00
189.26	2216.00
189.73	3258.00
190.21	3420.00
190.69	3547.00
191.17	3595.00
191.64	3646.00
192.12	3577.00
192.60	3576.00
193.07	3563.00
193.55	3588.00
194.03	3609.00
194.51	3611.00
194.98	3554.00
195.46	3631.00
195.94	3587.00
196.42	3585.00
196.89	3671.00
197.37	3587.00
197.85	3531.00
198.32	3555.00
198.80	3571.00
199.28	3571.00
199.76	3600.00
200.23	3585.00
200.71	3584.00
201.19	3627.00
201.66	3622.00
202.14	3573.00
202.62	3536.00
203.09	3595.00
203.57	3528.00
204.05	3639.00
204.53	3651.00
205.00	3555.00
205.48	3547.00
205.96	3647.00
206.43	3577.00
206.91	3553.00
207.39	3703.00
207.86	3604.00
208.34	3580.00
208.82	3557.00
209.29	3624.00
209.77	3593.00
210.25	3573.00
210.72	3602.00
211.20	3586.00
211.68	3578.00
212.15	3564.00
212.63	3634.00
213.11	3633.00
213.58	3561.00
214.06	3641.00
214.53	3601.00
215.01	3641.00
215.49	3631.00
215.96	3622.00
216.44	3640.00
216.92	3606.00
217.39	3567.00
217.87	3586.00
218.35	3612.00
218.82	3533.00
219.30	3520.00
219.77	3562.00
220.25	3566.00
220.73	3675.00
221.20	3575.00
221.68	3608.00
222.15	3520.00
222.63	3623.00
223.11	3543.00
223.58	3635.00
224.06	3594.00
224.53	3567.00
225.01	3547.00
225.49	3566.00
225.96	3541.00
226.44	3535.00
226.91	3622.00
227.39	3596.00
227.87	3605.00
228.34	3599.00
228.82	3576.00
229.29	3591.00
229.77	3554.00
230.24	3525.00
230.72	3598.00
231.20	3643.00
231.67	3549.00
232.15	3537.00
232.62	3518.00
233.10	3570.00
233.57	3567.00
234.05	3715.00
234.53	3613.00
235.00	3551.00
235.48	3583.00
235.95	3580.00
236.43	3635.00
236.90	3665.00
237.38	3511.00
237.85	3613.00
238.33	3550.00
238.80	3593.00
239.28	3561.00
239.75	3546.00
240.23	3613.00
240.71	3646.00
241.18	3587.00
241.66	3536.00
242.13	3598.00
242.61	3628.00
243.08	3527.00
243.56	3575.00
244.03	3632.00
244.51	3633.00
244.98	3577.00
245.46	3674.00
245.93	4943.00
246.41	3502.00
246.88	3608.00
247.36	3595.00
247.83	3572.00
248.31	3594.00
248.78	3550.00
249.26	3595.00
249.73	3632.00
250.21	3589.00
250.68	3641.00
251.16	3592.00
251.63	3672.00
252.10	3651.00
252.58	3634.00
253.05	3658.00
253.53	3600.00
254.00	3597.00
254.48	3618.00
254.95	3620.00
255.43	3655.00
255.90	3583.00
256.38	3594.00
256.85	3663.00
257.33	3673.00
257.80	3754.00
258.27	3621.00
258.75	3583.00
259.22	3571.00
259.70	3615.00
260.17	3661.00
260.65	3589.00
261.12	3570.00
261.59	3666.00
262.07	3587.00
262.54	3635.00
263.02	3607.00
263.49	3570.00
263.97	3631.00
264.44	3678.00
264.91	3605.00
265.39	3645.00
265.86	3612.00
266.34	3677.00
266.81	3624.00
267.28	3596.00
267.76	3626.00
268.23	3616.00
268.71	3505.00
269.18	3536.00
269.65	3569.00
270.13	3583.00
270.60	3647.00
271.08	3607.00
271.55	3639.00
272.02	3590.00
272.50	3567.00
272.97	3550.00
273.44	3642.00
273.92	3730.00
274.39	3597.00
274.87	3652.00
275.34	3529.00
275.81	3564.00
276.29	3645.00
276.76	3583.00
277.23	3493.00
277.71	3546.00
278.18	3447.00
278.65	3687.00
279.13	3514.00
279.60	3596.00
280.07	3847.00
280.55	3814.00
281.02	3929.00
281.50	3680.00
281.97	3733.00
282.44	3653.00
282.91	3667.00
283.39	3681.00
283.86	3597.00
284.33	3592.00
284.81	3675.00
285.28	3640.00
285.75	3633.00
286.23	3640.00
286.70	3576.00
287.17	3643.00
287.65	3723.00
288.12	3631.00
288.59	3633.00
289.07	3553.00
289.54	3698.00
290.01	3641.00
290.48	3633.00
290.96	3605.00
291.43	3687.00
291.90	3714.00
292.38	3533.00
292.85	3675.00
293.32	3575.00
293.79	3643.00
294.27	3619.00
294.74	3606.00
295.21	3669.00
295.69	3603.00
296.16	3736.00
296.63	3690.00
297.10	3609.00
297.58	3607.00
298.05	3651.00
298.52	3621.00
298.99	3678.00
299.47	3624.00
299.94	3629.00
300.41	3564.00
300.88	3688.00
301.36	3644.00
301.83	3642.00
302.30	3545.00
302.77	3667.00
303.25	3650.00
303.72	3617.00
304.19	3605.00
304.66	3602.00
305.13	3628.00
305.61	3665.00
306.08	3661.00
306.55	3650.00
307.02	3567.00
307.49	3593.00
307.97	3600.00
308.44	3613.00
308.91	3657.00
309.38	3690.00
309.86	3618.00
310.33	3606.00
310.80	3669.00
311.27	3625.00
311.74	3675.00
312.21	3638.00
312.69	3713.00
313.16	3589.00
313.63	3576.00
314.10	3619.00
314.57	3607.00
315.05	3599.00
315.52	3660.00
315.99	3630.00
316.46	3645.00
316.93	3643.00
317.40	3609.00
317.88	3750.00
318.35	3645.00
318.82	3605.00
319.29	3621.00
319.76	3681.00
320.23	3699.00
320.70	3711.00
321.18	3616.00
321.65	3536.00
322.12	3579.00
322.59	3722.00
323.06	3625.00
323.53	3761.00
324.00	3572.00
324.48	3640.00
324.95	3603.00
325.42	3641.00
325.89	3687.00
326.36	3662.00
326.83	3695.00
327.30	3673.00
327.77	3661.00
328.24	3716.00
328.72	3668.00
329.19	3664.00
329.66	3639.00
330.13	3609.00
330.60	3693.00
331.07	3635.00
331.54	3770.00
332.01	3657.00
332.48	3745.00
332.95	3703.00
333.43	3721.00
333.90	3766.00
334.37	3715.00
334.84	3679.00
335.31	3859.00
335.78	3620.00
336.25	3675.00
336.72	3645.00
337.19	3652.00
337.66	3649.00
338.13	3659.00
338.60	3702.00
339.07	3687.00
339.54	3603.00
340.01	3594.00
340.49	3578.00
340.96	3629.00
341.43	3667.00
341.90	3577.00
342.37	3607.00
342.84	3650.00
343.31	3599.00
343.78	3585.00
344.25	3605.00
344.72	3579.00
345.19	3584.00
345.66	3590.00
346.13	3586.00
346.60	3556.00
347.07	3667.00
347.54	3598.00
348.01	3606.00
348.48	3604.00
348.95	3567.00
349.42	3551.00
349.89	3636.00
350.36	3599.00
350.83	3549.00
351.30	3605.00
351.77	3685.00
352.24	3600.00
352.71	3628.00
353.18	3588.00
353.65	3621.00
354.12	3655.00
354.59	3630.00
355.06	3607.00
355.53	3711.00
356.00	3536.00
356.47	3685.00
356.94	3570.00
357.41	3776.00
357.88	3623.00
358.35	3541.00
358.82	3555.00
359.28	3572.00
359.75	3563.00
360.22	3649.00
360.69	3661.00
361.16	3591.00
361.63	3579.00
362.10	3625.00
362.57	3631.00
363.04	3613.00
363.51	3698.00
363.98	3675.00
364.45	3552.00
364.92	3665.00
365.39	3594.00
365.86	3576.00
366.32	3603.00
366.79	3627.00
367.26	4837.00
367.73	3929.00
368.20	3562.00
368.67	3659.00
369.14	3594.00
369.61	3694.00
370.08	3611.00
370.55	3571.00
371.02	4521.00
371.48	3582.00
371.95	3619.00
372.42	3584.00
372.89	3654.00
373.36	3600.00
373.83	3554.00
374.30	3615.00
374.77	3604.00
375.23	3557.00
375.70	3759.00
376.17	3591.00
376.64	3612.00
377.11	3611.00
377.58	3648.00
378.05	3654.00
378.51	3644.00
378.98	3641.00
379.45	3653.00
379.92	3671.00
380.39	3781.00
380.86	3661.00
381.33	3685.00
381.79	3660.00
382.26	3566.00
382.73	3660.00
383.20	3645.00
383.67	3677.00
384.14	3611.00
384.60	3836.00
385.07	3641.00
385.54	3575.00
386.01	3627.00
386.48	3746.00
386.94	3631.00
387.41	3568.00
387.88	3641.00
388.35	3665.00
388.82	3687.00
389.28	3620.00
389.75	3697.00
390.22	3673.00
390.69	3634.00
391.16	3663.00
391.62	3615.00
392.09	3677.00
392.56	3635.00
393.03	3657.00
393.50	3743.00
393.96	3661.00
394.43	3725.00
394.90	3611.00
395.37	3701.00
395.83	3847.00
396.30	3604.00
396.77	3668.00
397.24	3671.00
397.70	3594.00
398.17	3667.00
398.64	3625.00
399.11	3659.00
399.57	3681.00
400.04	3570.00
400.51	3649.00
400.98	3612.00
401.44	3683.00
401.91	3663.00
402.38	3635.00
402.84	3653.00
403.31	3740.00
403.78	3691.00
404.25	3762.00
404.71	3758.00
405.18	3757.00
405.65	3653.00
406.12	3744.00
406.58	3728.00
407.05	3778.00
407.52	3713.00
407.98	4236.00
408.45	3729.00
408.92	3671.00
409.38	3797.00
409.85	3718.00
410.32	3795.00
410.78	3740.00
411.25	3827.00
411.72	3740.00
412.18	3768.00
412.65	3833.00
413.12	3751.00
413.59	3814.00
414.05	3828.00
414.52	3915.00
414.98	3832.00
415.45	3918.00
415.92	3898.00
416.38	3877.00
416.85	4003.00
417.32	3937.00
417.78	3933.00
418.25	3920.00
418.72	3972.00
419.18	3981.00
419.65	3953.00
420.12	4006.00
420.58	3939.00
421.05	4041.00
421.51	4025.00
421.98	4030.00
422.45	4009.00
422.91	4033.00
423.38	4057.00
423.85	4077.00
424.31	4051.00
424.78	4161.00
425.24	4109.00
425.71	4165.00
426.18	4103.00
426.64	4197.00
427.11	4122.00
427.57	4159.00
428.04	4106.00
428.51	4152.00
428.97	4140.00
429.44	4117.00
429.90	4076.00
430.37	4224.00
430.83	4105.00
431.30	4236.00
431.77	4380.00
432.23	4369.00
432.70	4238.00
433.16	4275.00
433.63	4256.00
434.09	4271.00
434.56	4363.00
435.03	4364.00
435.49	4426.00
435.96	4447.00
436.42	4388.00
436.89	4483.00
437.35	4433.00
437.82	4415.00
438.28	4398.00
438.75	4443.00
439.21	4668.00
439.68	4500.00
440.14	4565.00
440.61	4603.00
441.07	4565.00
441.54	4573.00
442.00	4731.00
442.47	4590.00
442.94	4719.00
443.40	4657.00
443.87	4601.00
444.33	4754.00
444.80	4737.00
445.26	4680.00
445.73	4672.00
446.19	4778.00
446.65	4769.00
447.12	4853.00
447.58	4811.00
448.05	4849.00
448.51	4864.00
448.98	4910.00
449.44	4979.00
449.91	4957.00
450.37	5073.00
450.84	4993.00
451.30	5101.00
451.77	5021.00
452.23	4909.00
452.70	4954.00
453.16	4971.00
453.62	5037.00
454.09	5110.00
454.55	5066.00
455.02	5047.00
455.48	5108.00
455.95	5201.00
456.41	5093.00
456.88	5240.00
457.34	5191.00
457.80	5122.00
458.27	5082.00
458.73	5169.00
459.20	5113.00
459.66	5195.00
460.13	5173.00
460.59	5171.00
461.05	5237.00
461.52	5261.00
461.98	5175.00
462.45	5183.00
462.91	5303.00
463.37	5186.00
463.84	5199.00
464.30	5201.00
464.76	5147.00
465.23	5228.00
465.69	5246.00
466.16	5173.00
466.62	5196.00
467.08	5229.00
467.55	5157.00
468.01	5227.00
468.48	5292.00
468.94	5224.00
469.40	5251.00
469.87	5221.00
470.33	5246.00
470.79	5215.00
471.26	5267.00
471.72	5267.00
472.18	5262.00
472.65	5361.00
473.11	5361.00
473.57	5369.00
474.04	5316.00
474.50	5365.00
474.96	5358.00
475.43	5373.00
475.89	5330.00
476.35	5402.00
476.82	5380.00
477.28	5474.00
477.74	5511.00
478.21	5463.00
478.67	5483.00
479.13	5417.00
479.59	5665.00
480.06	5512.00
480.52	5529.00
480.98	5526.00
481.45	5568.00
481.91	5544.00
482.37	5453.00
482.84	5491.00
483.30	5492.00
483.76	5471.00
484.22	5555.00
484.69	5479.00
485.15	5395.00
485.61	5131.00
486.07	5208.00
486.54	5279.00
487.00	5375.00
487.46	5425.00
487.92	5441.00
488.39	5475.00
488.85	5542.00
489.31	5639.00
489.77	5760.00
490.24	5619.00
490.70	5697.00
491.16	5605.00
491.62	5577.00
492.09	5608.00
492.55	5814.00
493.01	5791.00
493.47	5830.00
493.94	5798.00
494.40	5937.00
494.86	5935.00
495.32	5868.00
495.78	6030.00
496.25	6015.00
496.71	6141.00
497.17	6235.00
497.63	6191.00
498.09	5989.00
498.56	6140.00
499.02	6192.00
499.48	6413.00
499.94	6247.00
500.40	6209.00
500.87	6297.00
501.33	6305.00
501.79	6473.00
502.25	6555.00
502.71	6903.00
503.17	6652.00
503.64	6683.00
504.10	6775.00
504.56	6949.00
505.02	7070.00
505.48	7204.00
505.94	7322.00
506.40	7343.00
506.87	7342.00
507.33	7493.00
507.79	7515.00
508.25	7687.00
508.71	7899.00
509.17	7941.00
509.63	8157.00
510.10	8162.00
510.56	8368.00
511.02	8672.00
511.48	8857.00
511.94	8795.00
512.40	8825.00
512.86	9114.00
513.32	9107.00
513.78	9218.00
514.25	9575.00
514.71	10339.00
515.17	9775.00
515.63	10063.00
516.09	9987.00
516.55	9791.00
517.01	9943.00
517.47	10424.00
517.93	10567.00
518.39	10950.00
518.85	11371.00
519.32	11701.00
519.78	12181.00
520.24	12202.00
520.70	12659.00
521.16	13038.00
521.62	13375.00
522.08	13529.00
522.54	13537.00
523.00	14019.00
523.46	14497.00
523.92	14979.00
524.38	15471.00
524.84	15384.00
525.30	15411.00
525.76	15549.00
526.22	14851.00
526.68	15088.00
527.14	15551.00
527.60	16409.00
528.06	16998.00
528.52	17472.00
528.98	17751.00
529.44	17685.00
529.90	17835.00
530.36	18310.00
530.82	18840.00
531.28	18820.00
531.74	18623.00
532.20	18372.00
532.66	18316.00
533.12	18908.00
533.58	19156.00
534.04	19390.00
534.50	19622.00
534.96	19813.00
535.42	20432.00
535.88	20368.00
536.34	20144.00
536.80	19900.00
537.26	20400.00
537.72	20835.00
538.18	20824.00
538.64	20876.00
539.10	20671.00
539.56	20768.00
540.02	20357.00
540.48	20439.00
540.94	20845.00
541.40	21200.00
541.86	21573.00
542.32	21487.00
542.78	21416.00
543.24	21837.00
543.69	22109.00
544.15	22462.00
544.61	22206.00
545.07	22415.00
545.53	22542.00
545.99	22703.00
546.45	22635.00
546.91	22665.00
547.37	22613.00
547.83	22652.00
548.29	23044.00
548.74	23127.00
549.20	23243.00
549.66	23590.00
550.12	23440.00
550.58	23322.00
551.04	23521.00
551.50	23640.00
551.96	24175.00
552.42	23714.00
552.87	23528.00
553.33	23859.00
553.79	24067.00
554.25	24126.00
554.71	24560.00
555.17	24349.00
555.63	24181.00
556.08	24138.00
556.54	23752.00
557.00	23537.00
557.46	23634.00
557.92	23868.00
558.38	23212.00
558.83	23026.00
559.29	23010.00
559.75	23089.00
560.21	23372.00
560.67	23885.00
561.13	23580.00
561.58	23231.00
562.04	23032.00
562.50	23271.00
562.96	23349.00
563.42	23080.00
563.87	22754.00
564.33	23018.00
564.79	22839.00
565.25	22510.00
565.71	22043.00
566.16	22217.00
566.62	22228.00
567.08	22319.00
567.54	22130.00
568.00	21616.00
568.45	21256.00
568.91	21169.00
569.37	21268.00
569.83	20960.00
570.28	20644.00
570.74	20224.00
571.20	20194.00
571.66	20596.00
572.11	20573.00
572.57	20491.00
573.03	20285.00
573.49	20213.00
573.94	19943.00
574.40	19627.00
574.86	19602.00
575.32	19203.00
575.77	19119.00
576.23	18977.00
576.69	19215.00
577.15	18900.00
577.60	18757.00
578.06	18373.00
578.52	18558.00
578.97	18400.00
579.43	18416.00
579.89	18435.00
580.34	18296.00
580.80	18373.00
581.26	18356.00
581.72	18396.00
582.17	18428.00
582.63	18324.00
583.09	18158.00
583.54	18052.00
584.00	18013.00
584.46	17963.00
584.91	17746.00
585.37	17578.00
585.83	17207.00
586.28	17303.00
586.74	17380.00
587.20	17258.00
587.65	17368.00
588.11	16915.00
588.57	16203.00
589.02	15385.00
589.48	15528.00
589.94	16224.00
590.39	16507.00
590.85	16477.00
591.30	16429.00
591.76	16447.00
592.22	16520.00
592.67	16514.00
593.13	16288.00
593.59	16567.00
594.04	16173.00
594.50	16173.00
594.95	16343.00
595.41	16245.00
595.87	16233.00
596.32	16479.00
596.78	16425.00
597.23	16264.00
597.69	16041.00
598.15	16005.00
598.60	16119.00
599.06	16213.00
599.51	16176.00
599.97	16187.00
600.43	16049.00
600.88	15884.00
601.34	16011.00
601.79	15663.00
602.25	15852.00
602.70	15895.00
603.16	16185.00
603.61	15921.00
604.07	15849.00
604.53	15943.00
604.98	15817.00
605.44	15748.00
605.89	15601.00
606.35	15445.00
606.80	15518.00
607.26	15467.00
607.71	15325.00
608.17	15227.00
608.62	15076.00
609.08	15136.00
609.53	14993.00
609.99	14713.00
610.44	14603.00
610.90	14699.00
611.35	14583.00
611.81	14647.00
612.26	14352.00
612.72	14333.00
613.17	14359.00
613.63	13792.00
614.08	13966.00
614.54	13968.00
614.99	13947.00
615.45	13902.00
615.90	13523.00
616.36	13225.00
616.81	13463.00
617.27	13457.00
617.72	13633.00
618.18	13572.00
618.63	13435.00
619.09	13422.00
619.54	13489.00
619.99	13325.00
620.45	13419.00
620.90	13379.00
621.36	13104.00
621.81	13239.00
622.27	13171.00
622.72	13119.00
623.18	12968.00
623.63	12961.00
624.08	12967.00
624.54	12705.00
624.99	12817.00
625.45	12695.00
625.90	12764.00
626.35	12925.00
626.81	12956.00
627.26	12828.00
627.72	12540.00
628.17	12629.00
628.62	12751.00
629.08	12715.00
629.53	12579.00
629.99	12522.00
630.44	12620.00
630.89	12775.00
631.35	12672.00
631.80	12607.00
632.26	12806.00
632.71	12748.00
633.16	12789.00
633.62	12565.00
634.07	12570.00
634.52	12685.00
634.98	12625.00
635.43	12633.00
635.88	12401.00
636.34	12501.00
636.79	12519.00
637.24	12420.00
637.70	12461.00
638.15	12359.00
638.60	12204.00
639.06	12112.00
639.51	11884.00
639.96	11733.00
640.42	11684.00
640.87	11631.00
641.32	11462.00
641.78	11416.00
642.23	11254.00
642.68	11266.00
643.14	11101.00
643.59	10993.00
644.04	10949.00
644.49	10764.00
644.95	10580.00
645.40	10447.00
645.85	10453.00
646.31	10312.00
646.76	10228.00
647.21	10089.00
647.66	9996.00
648.12	9882.00
648.57	9794.00
649.02	9723.00
649.47	9360.00
649.93	9746.00
650.38	9673.00
650.83	9755.00
651.28	9457.00
651.74	9433.00
652.19	9397.00
652.64	9473.00
653.09	9297.00
653.55	9392.00
654.00	9309.00
654.45	9154.00
654.90	9012.00
655.35	8712.00
655.81	8402.00
656.26	7888.00
656.71	8212.00
657.16	8476.00
657.62	8606.00
658.07	8608.00
658.52	8574.00
658.97	8491.00
659.42	8574.00
659.88	8337.00
660.33	8379.00
660.78	8249.00
661.23	8169.00
661.68	8165.00
662.13	7957.00
662.59	7855.00
663.04	7749.00
663.49	7635.00
663.94	7641.00
664.39	7566.00
664.84	7457.00
665.30	7457.00
665.75	7309.00
666.20	7242.00
666.65	7211.00
667.10	7307.00
667.55	7079.00
668.00	7022.00
668.46	7030.00
668.91	6949.00
669.36	6989.00
669.81	6763.00
670.26	6834.00
670.71	6800.00
671.16	6696.00
671.61	6800.00
672.06	6731.00
672.52	6676.00
672.97	6676.00
673.42	6692.00
673.87	6821.00
674.32	6622.00
674.77	6613.00
675.22	6493.00
675.67	6534.00
676.12	6613.00
676.57	6514.00
677.02	6588.00
677.47	6540.00
677.93	6586.00
678.38	6480.00
678.83	6451.00
679.28	6533.00
679.73	6495.00
680.18	6611.00
680.63	6659.00
681.08	6556.00
681.53	6569.00
681.98	6660.00
682.43	6757.00
682.88	6832.00
683.33	6949.00
683.78	7005.00
684.23	7108.00
684.68	7216.00
685.13	7281.00
685.58	7439.00
686.03	7506.00
686.48	7148.00
686.93	6943.00
687.38	6979.00
687.83	7470.00
688.28	7900.00
688.73	8251.00
689.18	8409.00
689.63	8719.00
690.08	9000.00
690.53	9551.00
690.98	9935.00
691.43	10562.00
691.88	10915.00
692.33	11525.00
692.78	11937.00
693.23	12476.00
693.68	13114.00
694.13	13440.00
694.58	14146.00
695.03	15144.00
695.48	15582.00
695.93	16320.00
696.38	17266.00
696.83	18031.00
697.28	18707.00
697.72	19065.00
698.17	19933.00
698.62	20696.00
699.07	21100.00
699.52	21907.00
699.97	22559.00
700.42	23147.00
700.87	24163.00
701.32	24587.00
701.77	25073.00
702.22	25923.00
702.67	26699.00
703.11	27514.00
703.56	28472.00
704.01	29250.00
704.46	30269.00
704.91	30968.00
705.36	31529.00
705.81	31997.00
706.26	32604.00
706.70	33143.00
707.15	33945.00
707.60	34755.00
708.05	35429.00
708.50	35974.00
708.95	36305.00
709.40	37012.00
709.84	37617.00
710.29	38168.00
710.74	38403.00
711.19	39132.00
711.64	39465.00
712.09	40224.00
712.53	40604.00
712.98	41109.00
713.43	41499.00
713.88	42061.00
714.33	41932.00
714.78	41982.00
715.22	42230.00
715.67	42646.00
716.12	42041.00
716.57	40596.00
717.02	39426.00
717.46	38080.00
717.91	37901.00
718.36	37087.00
718.81	36836.00
719.26	37122.00
719.70	37555.00
720.15	38363.00
720.60	40003.00
721.05	42912.00
721.49	44997.00
721.94	45761.00
722.39	45586.00
722.84	44603.00
723.28	42880.00
723.73	42347.00
724.18	42489.00
724.63	43262.00
725.07	43045.00
725.52	44133.00
725.97	44683.00
726.42	45196.00
726.86	45991.00
727.31	45145.00
727.76	45200.00
728.21	46463.00
728.65	46370.00
729.10	46098.00
729.55	47075.00
729.99	47955.00
730.44	48166.00
730.89	48909.00
731.33	49810.00
731.78	50757.00
732.23	52091.00
732.68	52951.00
733.12	53573.00
733.57	54519.00
734.02	55406.00
734.46	55928.00
734.91	55831.00
735.36	56242.00
735.80	56291.00
736.25	56651.00
736.70	57207.00
737.14	57829.00
737.59	58046.00
738.04	57600.00
738.48	57316.00
738.93	57391.00
739.37	58018.00
739.82	58808.00
740.27	59297.00
740.71	59092.00
741.16	58930.00
741.61	59263.00
742.05	59174.00
742.50	59794.00
742.94	59943.00
743.39	60438.00
743.84	60508.00
744.28	60228.00
744.73	60582.00
745.18	61029.00
745.62	61405.00
746.07	61220.00
746.51	61309.00
746.96	61303.00
747.40	60950.00
747.85	60926.00
748.30	60537.00
748.74	60580.00
749.19	60574.00
749.63	60653.00
750.08	60874.00
750.52	60882.00
750.97	60810.00
751.42	60511.00
751.86	60814.00
752.31	60114.00
752.75	60191.00
753.20	60285.00
753.64	60263.00
754.09	60497.00
754.53	60470.00
754.98	60296.00
755.42	60249.00
755.87	60185.00
756.31	59979.00
756.76	59598.00
757.20	59090.00
757.65	58446.00
758.09	57901.00
758.54	55855.00
758.98	49978.00
759.43	39197.00
759.87	27720.00
760.32	20837.00
760.76	20360.00
761.21	25403.00
761.65	31276.00
762.10	33001.00
762.54	31299.00
762.99	29664.00
763.43	30313.00
763.88	32378.00
764.32	35417.00
764.77	38466.00
765.21	41452.00
765.66	43995.00
766.10	46475.00
766.54	48725.00
766.99	50992.00
767.43	52659.00
767.88	54135.00
768.32	55269.00
768.77	55764.00
769.21	56907.00
769.66	57552.00
770.10	58306.00
770.54	58759.00
770.99	58707.00
771.43	58623.00
771.88	58435.00
772.32	58136.00
772.76	58274.00
773.21	58218.00
773.65	57963.00
774.10	57690.00
774.54	57607.00
774.98	57723.00
775.43	58351.00
775.87	58756.00
776.31	59120.00
776.76	59065.00
777.20	58687.00
777.65	57912.00
778.09	58090.00
778.53	57721.00
778.98	57570.00
779.42	57487.00
779.86	57182.00
780.31	57316.00
780.75	57530.00
781.19	57689.00
781.64	58004.00
782.08	58118.00
782.52	57616.00
782.97	57094.00
783.41	56584.00
783.85	56505.00
784.30	56108.00
784.74	55871.00
785.18	55992.00
785.63	55604.00
786.07	55929.00
786.51	55831.00
786.95	56113.00
787.40	55962.00
787.84	55614.00
788.28	55345.00
788.73	54651.00
789.17	54267.00
789.61	53645.00
790.05	53325.00
790.50	53079.00
790.94	53005.00
791.38	52878.00
791.82	53219.00
792.27	53316.00
792.71	53235.00
793.15	53635.00
793.59	53073.00
794.04	53205.00
794.48	52714.00
794.92	52081.00
795.36	51872.00
795.81	51723.00
796.25	51168.00
796.69	51398.00
797.13	52089.00
797.57	52338.00
798.02	52803.00
798.46	52797.00
798.90	52721.00
799.34	52113.00
799.79	51727.00
800.23	50938.00
800.67	50506.00
801.11	50164.00
801.55	50354.00
801.99	49802.00
802.44	50094.00
802.88	50281.00
803.32	50859.00
803.76	51022.00
804.20	51201.00
804.64	50972.00
805.09	50920.00
805.53	50817.00
805.97	50272.00
806.41	50056.00
806.85	49596.00
807.29	49007.00
807.74	48766.00
808.18	48851.00
808.62	48605.00
809.06	48470.00
809.50	48840.00
809.94	49046.00
810.38	48957.00
810.82	49051.00
811.27	48767.00
811.71	47784.00
812.15	46852.00
812.59	45252.00
813.03	44529.00
813.47	42824.00
813.91	41981.00
814.35	41292.00
814.79	40857.00
815.23	40514.00
815.67	40039.00
816.12	40219.00
816.56	39945.00
817.00	40193.00
817.44	40694.00
817.88	40794.00
818.32	40110.00
818.76	40201.00
819.20	40034.00
819.64	40711.00
820.08	41106.00
820.52	42002.00
820.96	42935.00
821.40	42196.00
821.84	40900.00
822.28	38660.00
822.72	38359.00
823.16	38056.00
823.60	40311.00
824.04	43019.00
824.48	43680.00
824.92	43329.00
825.36	43320.00
825.80	42898.00
826.24	42467.00
826.68	42053.00
827.12	42015.00
827.56	41088.00
828.00	41121.00
828.44	41581.00
828.88	42092.00
829.32	42479.00
829.76	42504.00
830.20	43285.00
830.64	42693.00
831.08	42224.00
831.52	41843.00
831.96	41402.00
832.40	40803.00
832.84	41269.00
833.28	41517.00
833.72	42290.00
834.16	43061.00
834.60	44250.00
835.04	44610.00
835.48	45337.00
835.91	44915.00
836.35	44850.00
836.79	44727.00
837.23	44220.00
837.67	43698.00
838.11	43457.00
838.55	43585.00
838.99	43545.00
839.43	44065.00
839.87	44428.00
840.30	44985.00
840.74	45653.00
841.18	46126.00
841.62	46265.00
842.06	46216.00
842.50	46263.00
842.94	45467.00
843.38	44821.00
843.81	43943.00
844.25	43588.00
844.69	43356.00
845.13	43168.00
845.57	43346.00
846.01	43591.00
846.45	44032.00
846.88	44545.00
847.32	44951.00
847.76	45798.00
848.20	45888.00
848.64	45245.00
849.08	44398.00
849.51	44254.00
849.95	43425.00
850.39	43159.00
850.83	43757.00
851.27	43669.00
851.70	42867.00
852.14	42530.00
852.58	41805.00
853.02	40489.00
853.46	39143.00
853.89	39509.00
854.33	39101.00
854.77	41096.00
855.21	43792.00
855.65	44590.00
856.08	45480.00
856.52	45488.00
856.96	45209.00
857.40	44331.00
857.83	43440.00
858.27	42949.00
858.71	42079.00
859.15	42125.00
859.58	42378.00
860.02	42553.00
860.46	43190.00
860.89	44137.00
861.33	44313.00
861.77	44842.00
862.21	45160.00
862.64	45378.00
863.08	45135.00
863.52	44884.00
863.95	43815.00
864.39	43254.00
864.83	41594.00
865.27	39680.00
865.70	39450.00
866.14	38562.00
866.58	38516.00
867.01	40450.00
867.45	41896.00
867.89	43034.00
868.32	43951.00
868.76	44270.00
869.20	44442.00
869.63	44614.00
870.07	43719.00
870.51	43016.00
870.94	41916.00
871.38	41225.00
871.82	40068.00
872.25	40151.00
872.69	39977.00
873.13	40332.00
873.56	40653.00
874.00	41259.00
874.43	41793.00
874.87	42412.00
875.31	43079.00
875.74	43118.00
876.18	43405.00
876.61	43193.00
877.05	42917.00
877.49	42299.00
877.92	41720.00
878.36	41107.00
878.79	40293.00
879.23	39405.00
879.67	38890.00
880.10	38879.00
880.54	38933.00
880.97	39310.00
881.41	40736.00
881.84	41839.00
882.28	42497.00
882.72	43174.00
883.15	43743.00
883.59	43598.00
884.02	43437.00
884.46	43155.00
884.89	42524.00
885.33	41671.00
885.76	40275.00
886.20	39592.00
886.63	38826.00
887.07	38661.00
887.50	38837.00
887.94	38667.00
888.37	39331.00
888.81	40047.00
889.24	40162.00
889.68	40569.00
890.11	41307.00
890.55	41523.00
890.98	41962.00
891.42	41971.00
891.85	41670.00
892.29	41329.00
892.72	40037.00
893.16	38895.00
893.59	37903.00
894.03	36745.00
894.46	35647.00
894.90	34231.00
895.33	32993.00
895.77	32874.00
896.20	32557.00
896.63	32800.00
897.07	32898.00
897.50	32581.00
897.94	33065.00
898.37	34268.00
898.81	31957.00
899.24	31918.00
899.68	33720.00
900.11	32800.00
900.54	31973.00
900.98	31460.00
901.41	31386.00
901.85	31602.00
902.28	31731.00
902.71	32199.00
903.15	33095.00
903.58	34438.00
904.02	34409.00
904.45	34366.00
904.88	34036.00
905.32	33874.00
905.75	33634.00
906.18	32660.00
906.62	32837.00
907.05	31950.00
907.48	32135.00
907.92	31655.00
908.35	31938.00
908.79	31163.00
909.22	30925.00
909.65	30429.00
910.09	30625.00
910.52	29736.00
910.95	30274.00
911.38	30299.00
911.82	29024.00
912.25	29960.00
912.68	30653.00
913.12	30168.00
913.55	30617.00
913.98	31701.00
914.42	32699.00
914.85	32958.00
915.28	31573.00
915.72	31110.00
916.15	30793.00
916.58	30980.00
917.01	29768.00
917.45	28906.00
917.88	29765.00
918.31	30378.00
918.74	31656.00
919.18	31973.00
919.61	31861.00
920.04	32631.00
920.47	32671.00
920.91	33202.00
921.34	33125.00
921.77	33306.00
922.20	33812.00
922.64	33552.00
923.07	33337.00
923.50	32917.00
923.93	32612.00
924.37	31863.00
924.80	31471.00
925.23	31226.00
925.66	29994.00
926.09	28578.00
926.53	27991.00
926.96	26971.00
927.39	25723.00
927.82	24491.00
928.25	23407.00
928.69	23028.00
929.12	22698.00
929.55	21412.00
929.98	20733.00
930.41	19289.00
930.84	18232.00
931.28	17007.00
931.71	15637.00
932.14	13951.00
932.57	13383.00
933.00	13027.00
933.43	12235.00
933.86	11508.00
934.30	11002.00
934.73	12377.00
935.16	11899.00
935.59	10904.00
936.02	11747.00
936.45	11339.00
936.88	11437.00
937.31	12677.00
937.75	13164.00
938.18	14056.00
938.61	14670.00
939.04	15435.00
939.47	15044.00
939.90	14128.00
940.33	13480.00
940.76	12511.00
941.19	11992.00
941.62	11814.00
942.05	11629.00
942.48	10177.00
942.91	10392.00
943.35	11107.00
943.78	10214.00
944.21	10157.00
944.64	11189.00
945.07	11295.00
945.50	11065.00
945.93	11411.00
946.36	11874.00
946.79	12252.00
947.22	12952.00
947.65	12639.00
948.08	12144.00
948.51	12994.00
948.94	13315.00
949.37	12651.00
949.80	12105.00
950.23	12425.00
950.66	13001.00
951.09	12953.00
951.52	12236.00
951.95	12456.00
952.38	12889.00
952.81	13697.00
953.24	14407.00
953.67	14720.00
954.10	14471.00
954.53	15266.00
954.96	14994.00
955.39	15409.00
955.82	16455.00
956.25	15832.00
956.68	16208.00
957.11	16645.00
957.53	15858.00
957.96	15834.00
958.39	15515.00
958.82	14781.00
959.25	15410.00
959.68	16179.00
960.11	16290.00
960.54	16539.00
960.97	17569.00
961.40	18205.00
961.83	17882.00
962.26	18254.00
962.68	19860.00
963.11	20115.00
963.54	20223.00
963.97	20447.00
964.40	20329.00
964.83	20922.00
965.26	21155.00
965.69	20827.00
966.11	20589.00
966.54	20794.00
966.97	21752.00
967.40	22127.00
967.83	21961.00
968.26	22174.00
968.69	22205.00
969.11	22480.00
969.54	22129.00
969.97	22335.00
970.40	22838.00
970.83	22748.00
971.26	22993.00
971.68	23040.00
972.11	23151.00
972.54	23625.00
972.97	23350.00
973.40	23026.00
973.82	22957.00
974.25	23023.00
974.68	22597.00
975.11	22315.00
975.54	21832.00
975.96	21567.00
976.39	21705.00
976.82	21644.00
977.25	21432.00
977.67	21380.00
978.10	21557.00
978.53	21821.00
978.96	22495.00
979.38	22857.00
979.81	23246.00
980.24	23982.00
980.67	24157.00
981.09	24773.00
981.52	24922.00
981.95	24907.00
982.38	24991.00
982.80	25124.00
983.23	25535.00
983.66	25616.00
984.08	25346.00
984.51	25181.00
984.94	24777.00
985.37	24518.00
985.79	24116.00
986.22	23668.00
986.65	23290.00
987.07	23117.00
987.50	23082.00
987.93	23067.00
988.35	23061.00
988.78	23305.00
989.21	23521.00
989.63	23945.00
990.06	24339.00
990.49	24459.00
990.91	24964.00
991.34	25288.00
991.77	25177.00
992.19	25253.00
992.62	25096.00
993.05	25030.00
993.47	24785.00
993.90	24551.00
994.32	24041.00
994.75	23712.00
995.18	23296.00
995.60	22990.00
996.03	22577.00
996.45	22367.00
996.88	22294.00
997.31	22076.00
997.73	22125.00
998.16	22127.00
998.58	22299.00
999.01	22364.00
999.44	22590.00
999.86	22985.00
1000.29	23095.00
1000.71	23305.00
1001.14	23435.00
1001.56	23254.00
1001.99	23141.00
1002.41	22898.00
1002.84	22524.00
1003.27	21887.00
1003.69	21452.00
1004.12	20942.00
1004.54	20606.00
1004.97	20258.00
1005.39	20102.00
1005.82	19717.00
1006.24	19936.00
1006.67	19678.00
1007.09	19687.00
1007.52	19801.00
1007.94	19777.00
1008.37	19843.00
1008.79	19958.00
1009.22	19931.00
1009.64	19961.00
1010.07	20077.00
1010.49	20168.00
1010.92	20164.00
1011.34	20214.00
1011.77	20089.00
1012.19	19944.00
1012.62	19936.00
1013.04	19549.00
1013.46	19252.00
1013.89	18690.00
1014.31	18563.00
1014.74	18071.00
1015.16	18059.00
1015.59	17713.00
1016.01	17752.00
1016.44	17812.00
1016.86	19153.00
1017.28	17912.00
1017.71	18121.00
1018.13	18397.00
1018.56	18505.00
1018.98	18689.00
1019.40	18677.00
1019.83	18813.00
1020.25	18957.00
1020.68	19140.00
1021.10	19287.00
1021.52	19349.00
1021.95	19786.00
1022.37	19535.00
1022.79	19306.00
1023.22	19159.00
1023.64	18994.00
1024.07	18901.00
1024.49	18435.00
1024.91	18113.00
1025.34	17953.00
1025.76	17911.00
1026.18	17735.00
1026.61	17652.00
1027.03	17567.00
1027.45	17613.00
1027.88	17571.00
1028.30	17749.00
1028.72	17751.00
1029.15	17885.00
1029.57	17927.00
1029.99	18099.00
1030.41	17945.00
1030.84	17955.00
1031.26	17858.00
1031.68	17759.00
1032.11	17508.00
1032.53	17335.00
1032.95	17263.00
1033.37	16898.00
1033.80	16727.00
1034.22	16237.00
1034.64	16244.00
1035.06	15745.00
1035.49	15686.00
1035.91	15457.00
1036.33	15097.00
1036.75	15050.00
1037.18	15007.00
1037.60	14974.00
1038.02	15049.00
1038.44	14965.00
1038.87	14913.00
1039.29	15052.00
1039.71	15084.00
1040.13	15101.00
1040.55	15197.00
1040.98	15097.00
1041.40	14954.00
1041.82	14810.00
1042.24	14611.00
1042.66	14597.00
1043.09	14194.00
1043.51	14097.00
1043.93	13806.00
1044.35	13615.00
1044.77	13480.00
1045.20	13301.00
1045.62	12927.00
1046.04	12933.00
1046.46	12787.00
1046.88	12636.00
1047.30	12497.00
1047.72	12445.00
1048.15	12357.00
1048.57	12240.00
1048.99	12233.00
1049.41	12193.00
1049.83	12178.00
1050.25	12199.00
1050.67	12064.00
1051.09	12040.00
1051.52	12142.00
1051.94	11753.00
1052.36	11853.00
1052.78	11792.00
1053.20	11748.00
1053.62	11649.00
1054.04	11637.00
1054.46	11383.00
1054.88	11392.00
1055.30	11192.00
1055.72	11069.00
1056.14	10972.00
1056.57	10903.00
1056.99	10476.00
1057.41	10437.00
1057.83	10340.00
1058.25	10271.00
1058.67	10100.00
1059.09	9932.00
1059.51	9943.00
1059.93	9889.00
1060.35	9601.00
1060.77	9743.00
1061.19	9678.00
1061.61	9577.00
1062.03	9492.00
1062.45	9493.00
1062.87	9450.00
1063.29	9333.00
1063.71	9342.00
1064.13	9309.00
1064.55	9186.00
1064.97	9181.00
1065.39	9191.00
1065.81	9120.00
1066.23	8950.00
1066.65	8870.00
1067.07	8933.00
1067.49	8701.00
1067.91	8529.00
1068.33	8503.00
1068.75	8491.00
1069.17	8422.00
1069.59	8366.00
1070.00	8208.00
1070.42	8211.00
1070.84	8097.00
1071.26	8017.00
1071.68	7947.00
1072.10	7939.00
1072.52	7903.00
1072.94	7757.00
1073.36	7773.00
1073.78	7715.00
1074.20	7831.00
1074.62	7761.00
1075.03	7687.00
1075.45	7671.00
1075.87	7661.00
1076.29	7663.00
1076.71	7604.00
1077.13	7705.00
1077.55	7404.00
1077.97	7367.00
1078.38	7312.00
1078.80	7287.00
1079.22	7149.00
1079.64	7148.00
1080.06	6987.00
1080.48	6965.00
1080.89	6907.00
1081.31	6767.00
1081.73	6787.00
1082.15	6739.00
1082.57	6741.00
1082.99	6648.00
1083.40	6556.00
1083.82	6662.00
1084.24	6472.00
1084.66	6475.00
1085.08	6456.00
1085.49	6394.00
1085.91	6469.00
1086.33	7757.00
1086.75	6417.00
1087.17	6346.00
1087.58	6337.00
1088.00	6297.00
1088.42	6351.00
1088.84	6307.00
1089.25	6181.00
1089.67	6152.00
1090.09	6119.00
1090.51	5925.00
1090.92	5965.00
1091.34	5847.00
1091.76	5814.00
1092.18	5687.00
1092.59	5673.00
1093.01	5626.00
1093.43	5582.00
1093.84	5527.00
1094.26	5504.00
1094.68	5445.00
1095.10	5481.00
1095.51	5399.00
1095.93	5322.00
1096.35	5375.00
1096.76	5281.00
1097.18	5364.00
1097.60	5262.00
1098.01	5233.00
1098.43	5147.00
1098.85	5163.00
1099.26	5102.00
1099.68	5008.00
1100.10	4972.00
1100.51	4899.00
1100.93	4904.00
1101.35	4848.00
1101.76	4830.00
1102.18	5252.00
1102.60	4803.00
1103.01	4597.00
1103.43	4708.00
1103.84	4675.00
1104.26	4622.00
1104.68	4646.00
1105.09	4608.00
1105.51	4551.00
1105.92	4551.00
1106.34	4420.00
1106.76	4435.00
1107.17	4391.00
1107.59	4327.00
1108.00	4225.00
1108.42	4274.00
1108.83	4153.00
1109.25	4173.00
1109.67	4072.00
1110.08	4121.00
1110.50	4051.00
1110.91	4089.00
1111.33	3961.00
1111.74	3951.00
1112.16	3973.00
1112.57	3943.00
1112.99	3814.00
1113.41	3795.00
1113.82	3778.00
1114.24	3691.00
1114.65	3619.00
1115.07	3506.00
1115.48	3358.00
1115.90	2184.00
1116.31	2215.00
1116.73	2209.00
1117.14	2213.00
>>>>>End Processed Spectral Data<<<<<
