SpectraSuite Data File
++++++++++++++++++++++++++++++++++++
Date: Tue May 29 12:59:29 EEST 2018
User: CanSEE
Dark Spectrum Present: No
Reference Spectrum Present: No
Number of Sampled Component Spectra: 1
Spectrometers: MAYP11278
Integration Time (usec): 250000 (MAYP11278)
Spectra Averaged: 1 (MAYP11278)
Boxcar Smoothing: 0 (MAYP11278)
Correct for Electrical Dark: No (MAYP11278)
Strobe/Lamp Enabled: No (MAYP11278)
Correct for Detector Non-linearity: No (MAYP11278)
Correct for Stray Light: No (MAYP11278)
Number of Pixels in Processed Spectrum: 2068
>>>>>Begin Processed Spectral Data<<<<<
187.82	2326.00
188.30	2231.00
188.78	2199.00
189.26	2198.00
189.73	2965.00
190.21	3101.00
190.69	3189.00
191.17	3193.00
191.64	3265.00
192.12	3178.00
192.60	3178.00
193.07	3163.00
193.55	3197.00
194.03	3171.00
194.51	3226.00
194.98	3176.00
195.46	3248.00
195.94	3186.00
196.42	3190.00
196.89	3303.00
197.37	3195.00
197.85	3174.00
198.32	3194.00
198.80	3186.00
199.28	3228.00
199.76	3217.00
200.23	3182.00
200.71	3225.00
201.19	3214.00
201.66	3229.00
202.14	3223.00
202.62	3200.00
203.09	3244.00
203.57	3163.00
204.05	3246.00
204.53	3292.00
205.00	3225.00
205.48	3168.00
205.96	3290.00
206.43	3213.00
206.91	3227.00
207.39	3284.00
207.86	3214.00
208.34	3239.00
208.82	3196.00
209.29	3240.00
209.77	3226.00
210.25	3246.00
210.72	3207.00
211.20	3241.00
211.68	3217.00
212.15	3177.00
212.63	3282.00
213.11	3259.00
213.58	3199.00
214.06	3243.00
214.53	3251.00
215.01	3242.00
215.49	3265.00
215.96	3244.00
216.44	3232.00
216.92	3238.00
217.39	3213.00
217.87	3197.00
218.35	3249.00
218.82	3177.00
219.30	3170.00
219.77	3190.00
220.25	3219.00
220.73	3285.00
221.20	3240.00
221.68	3244.00
222.15	3184.00
222.63	3200.00
223.11	3206.00
223.58	3234.00
224.06	3198.00
224.53	3185.00
225.01	3162.00
225.49	3188.00
225.96	3190.00
226.44	3227.00
226.91	3230.00
227.39	3221.00
227.87	3242.00
228.34	3232.00
228.82	3215.00
229.29	3245.00
229.77	3204.00
230.24	3183.00
230.72	3246.00
231.20	3261.00
231.67	3186.00
232.15	3200.00
232.62	3170.00
233.10	3185.00
233.57	3245.00
234.05	3377.00
234.53	3240.00
235.00	3202.00
235.48	3205.00
235.95	3233.00
236.43	3243.00
236.90	3273.00
237.38	3178.00
237.85	3204.00
238.33	3189.00
238.80	3233.00
239.28	3226.00
239.75	3146.00
240.23	3271.00
240.71	3251.00
241.18	3217.00
241.66	3196.00
242.13	3256.00
242.61	3245.00
243.08	3189.00
243.56	3170.00
244.03	3223.00
244.51	3273.00
244.98	3248.00
245.46	3274.00
245.93	4249.00
246.41	3182.00
246.88	3205.00
247.36	3190.00
247.83	3225.00
248.31	3238.00
248.78	3180.00
249.26	3214.00
249.73	3247.00
250.21	3258.00
250.68	3293.00
251.16	3252.00
251.63	3294.00
252.10	3276.00
252.58	3207.00
253.05	3284.00
253.53	3246.00
254.00	3232.00
254.48	3235.00
254.95	3255.00
255.43	3270.00
255.90	3234.00
256.38	3246.00
256.85	3249.00
257.33	3297.00
257.80	3347.00
258.27	3225.00
258.75	3226.00
259.22	3244.00
259.70	3238.00
260.17	3295.00
260.65	3243.00
261.12	3250.00
261.59	3345.00
262.07	3245.00
262.54	3265.00
263.02	3216.00
263.49	3204.00
263.97	3280.00
264.44	3315.00
264.91	3217.00
265.39	3267.00
265.86	3259.00
266.34	3267.00
266.81	3252.00
267.28	3245.00
267.76	3257.00
268.23	3227.00
268.71	3164.00
269.18	3220.00
269.65	3248.00
270.13	3251.00
270.60	3256.00
271.08	3202.00
271.55	3235.00
272.02	3194.00
272.50	3248.00
272.97	3194.00
273.44	3273.00
273.92	3346.00
274.39	3217.00
274.87	3252.00
275.34	3208.00
275.81	3185.00
276.29	3263.00
276.76	3216.00
277.23	3110.00
277.71	3145.00
278.18	3114.00
278.65	3298.00
279.13	3186.00
279.60	3211.00
280.07	3449.00
280.55	3471.00
281.02	3510.00
281.50	3321.00
281.97	3363.00
282.44	3283.00
282.91	3276.00
283.39	3292.00
283.86	3242.00
284.33	3231.00
284.81	3285.00
285.28	3258.00
285.75	3281.00
286.23	3250.00
286.70	3207.00
287.17	3268.00
287.65	3327.00
288.12	3221.00
288.59	3268.00
289.07	3199.00
289.54	3279.00
290.01	3206.00
290.48	3270.00
290.96	3216.00
291.43	3242.00
291.90	3339.00
292.38	3188.00
292.85	3290.00
293.32	3240.00
293.79	3260.00
294.27	3281.00
294.74	3229.00
295.21	3243.00
295.69	3253.00
296.16	3366.00
296.63	3291.00
297.10	3271.00
297.58	3296.00
298.05	3289.00
298.52	3270.00
298.99	3315.00
299.47	3272.00
299.94	3270.00
300.41	3225.00
300.88	3279.00
301.36	3298.00
301.83	3265.00
302.30	3243.00
302.77	3300.00
303.25	3263.00
303.72	3272.00
304.19	3225.00
304.66	3229.00
305.13	3258.00
305.61	3300.00
306.08	3259.00
306.55	3263.00
307.02	3236.00
307.49	3264.00
307.97	3243.00
308.44	3249.00
308.91	3269.00
309.38	3279.00
309.86	3270.00
310.33	3245.00
310.80	3275.00
311.27	3257.00
311.74	3279.00
312.21	3266.00
312.69	3317.00
313.16	3264.00
313.63	3231.00
314.10	3283.00
314.57	3257.00
315.05	3267.00
315.52	3290.00
315.99	3240.00
316.46	3264.00
316.93	3259.00
317.40	3290.00
317.88	3357.00
318.35	3263.00
318.82	3254.00
319.29	3191.00
319.76	3302.00
320.23	3339.00
320.70	3285.00
321.18	3252.00
321.65	3208.00
322.12	3268.00
322.59	3336.00
323.06	3264.00
323.53	3333.00
324.00	3209.00
324.48	3255.00
324.95	3246.00
325.42	3269.00
325.89	3261.00
326.36	3277.00
326.83	3289.00
327.30	3290.00
327.77	3334.00
328.24	3290.00
328.72	3278.00
329.19	3267.00
329.66	3277.00
330.13	3280.00
330.60	3311.00
331.07	3287.00
331.54	3331.00
332.01	3270.00
332.48	3358.00
332.95	3335.00
333.43	3290.00
333.90	3340.00
334.37	3261.00
334.84	3294.00
335.31	3402.00
335.78	3246.00
336.25	3306.00
336.72	3288.00
337.19	3300.00
337.66	3267.00
338.13	3262.00
338.60	3329.00
339.07	3318.00
339.54	3245.00
340.01	3217.00
340.49	3222.00
340.96	3300.00
341.43	3300.00
341.90	3227.00
342.37	3259.00
342.84	3283.00
343.31	3233.00
343.78	3243.00
344.25	3253.00
344.72	3263.00
345.19	3249.00
345.66	3252.00
346.13	3207.00
346.60	3203.00
347.07	3331.00
347.54	3200.00
348.01	3287.00
348.48	3238.00
348.95	3190.00
349.42	3238.00
349.89	3262.00
350.36	3223.00
350.83	3224.00
351.30	3229.00
351.77	3306.00
352.24	3236.00
352.71	3235.00
353.18	3249.00
353.65	3298.00
354.12	3264.00
354.59	3284.00
355.06	3266.00
355.53	3311.00
356.00	3228.00
356.47	3306.00
356.94	3209.00
357.41	3317.00
357.88	3298.00
358.35	3212.00
358.82	3226.00
359.28	3247.00
359.75	3248.00
360.22	3285.00
360.69	3315.00
361.16	3263.00
361.63	3267.00
362.10	3277.00
362.57	3270.00
363.04	3201.00
363.51	3334.00
363.98	3250.00
364.45	3219.00
364.92	3260.00
365.39	3229.00
365.86	3217.00
366.32	3265.00
366.79	3257.00
367.26	3855.00
367.73	3264.00
368.20	3210.00
368.67	3297.00
369.14	3219.00
369.61	3315.00
370.08	3234.00
370.55	3236.00
371.02	3768.00
371.48	3245.00
371.95	3226.00
372.42	3217.00
372.89	3265.00
373.36	3276.00
373.83	3219.00
374.30	3212.00
374.77	3266.00
375.23	3228.00
375.70	3352.00
376.17	3269.00
376.64	3230.00
377.11	3251.00
377.58	3300.00
378.05	3274.00
378.51	3257.00
378.98	3270.00
379.45	3219.00
379.92	3289.00
380.39	3362.00
380.86	3269.00
381.33	3296.00
381.79	3311.00
382.26	3226.00
382.73	3281.00
383.20	3209.00
383.67	3296.00
384.14	3288.00
384.60	3464.00
385.07	3286.00
385.54	3258.00
386.01	3264.00
386.48	3328.00
386.94	3249.00
387.41	3217.00
387.88	3288.00
388.35	3281.00
388.82	3311.00
389.28	3228.00
389.75	3279.00
390.22	3298.00
390.69	3289.00
391.16	3273.00
391.62	3259.00
392.09	3289.00
392.56	3253.00
393.03	3277.00
393.50	3380.00
393.96	3265.00
394.43	3342.00
394.90	3207.00
395.37	3277.00
395.83	3414.00
396.30	3239.00
396.77	3316.00
397.24	3299.00
397.70	3288.00
398.17	3293.00
398.64	3255.00
399.11	3252.00
399.57	3297.00
400.04	3215.00
400.51	3285.00
400.98	3289.00
401.44	3315.00
401.91	3287.00
402.38	3294.00
402.84	3286.00
403.31	3332.00
403.78	3292.00
404.25	3328.00
404.71	3357.00
405.18	3318.00
405.65	3261.00
406.12	3304.00
406.58	3282.00
407.05	3319.00
407.52	3298.00
407.98	3891.00
408.45	3305.00
408.92	3249.00
409.38	3333.00
409.85	3269.00
410.32	3297.00
410.78	3235.00
411.25	3323.00
411.72	3264.00
412.18	3192.00
412.65	3260.00
413.12	3290.00
413.59	3269.00
414.05	3295.00
414.52	3348.00
414.98	3262.00
415.45	3352.00
415.92	3293.00
416.38	3254.00
416.85	3281.00
417.32	3266.00
417.78	3269.00
418.25	3278.00
418.72	3277.00
419.18	3326.00
419.65	3234.00
420.12	3306.00
420.58	3226.00
421.05	3270.00
421.51	3274.00
421.98	3286.00
422.45	3244.00
422.91	3279.00
423.38	3275.00
423.85	3301.00
424.31	3252.00
424.78	3291.00
425.24	3280.00
425.71	3313.00
426.18	3219.00
426.64	3270.00
427.11	3297.00
427.57	3343.00
428.04	3269.00
428.51	3286.00
428.97	3283.00
429.44	3252.00
429.90	3269.00
430.37	3374.00
430.83	3225.00
431.30	3271.00
431.77	3318.00
432.23	3339.00
432.70	3282.00
433.16	3250.00
433.63	3307.00
434.09	3241.00
434.56	3317.00
435.03	3219.00
435.49	3303.00
435.96	3286.00
436.42	3235.00
436.89	3315.00
437.35	3288.00
437.82	3300.00
438.28	3248.00
438.75	3278.00
439.21	3402.00
439.68	3261.00
440.14	3311.00
440.61	3328.00
441.07	3262.00
441.54	3271.00
442.00	3364.00
442.47	3257.00
442.94	3262.00
443.40	3273.00
443.87	3250.00
444.33	3318.00
444.80	3267.00
445.26	3267.00
445.73	3285.00
446.19	3260.00
446.65	3247.00
447.12	3298.00
447.58	3251.00
448.05	3243.00
448.51	3276.00
448.98	3282.00
449.44	3292.00
449.91	3241.00
450.37	3231.00
450.84	3261.00
451.30	3281.00
451.77	3316.00
452.23	3225.00
452.70	3302.00
453.16	3273.00
453.62	3288.00
454.09	3242.00
454.55	3295.00
455.02	3242.00
455.48	3246.00
455.95	3255.00
456.41	3257.00
456.88	3311.00
457.34	3245.00
457.80	3231.00
458.27	3218.00
458.73	3249.00
459.20	3254.00
459.66	3275.00
460.13	3183.00
460.59	3189.00
461.05	3272.00
461.52	3246.00
461.98	3190.00
462.45	3208.00
462.91	3244.00
463.37	3162.00
463.84	3230.00
464.30	3195.00
464.76	3123.00
465.23	3169.00
465.69	3210.00
466.16	3154.00
466.62	3186.00
467.08	3177.00
467.55	3164.00
468.01	3181.00
468.48	3177.00
468.94	3152.00
469.40	3102.00
469.87	3155.00
470.33	3162.00
470.79	3130.00
471.26	3128.00
471.72	3100.00
472.18	3106.00
472.65	3130.00
473.11	3177.00
473.57	3108.00
474.04	3142.00
474.50	3109.00
474.96	3083.00
475.43	3115.00
475.89	3098.00
476.35	3125.00
476.82	3113.00
477.28	3137.00
477.74	3130.00
478.21	3108.00
478.67	3122.00
479.13	3064.00
479.59	3167.00
480.06	3105.00
480.52	3083.00
480.98	3061.00
481.45	3086.00
481.91	3113.00
482.37	3113.00
482.84	3100.00
483.30	3077.00
483.76	3069.00
484.22	3166.00
484.69	3094.00
485.15	3092.00
485.61	3035.00
486.07	3070.00
486.54	3021.00
487.00	3096.00
487.46	3035.00
487.92	3054.00
488.39	3047.00
488.85	3116.00
489.31	3093.00
489.77	3137.00
490.24	3039.00
490.70	3079.00
491.16	3073.00
491.62	3082.00
492.09	3031.00
492.55	3118.00
493.01	3111.00
493.47	3072.00
493.94	3117.00
494.40	3084.00
494.86	3114.00
495.32	3095.00
495.78	3110.00
496.25	3118.00
496.71	3131.00
497.17	3206.00
497.63	3171.00
498.09	3102.00
498.56	3150.00
499.02	3085.00
499.48	3249.00
499.94	3164.00
500.40	3143.00
500.87	3134.00
501.33	3147.00
501.79	3197.00
502.25	3206.00
502.71	3445.00
503.17	3214.00
503.64	3257.00
504.10	3209.00
504.56	3274.00
505.02	3282.00
505.48	3253.00
505.94	3264.00
506.40	3328.00
506.87	3335.00
507.33	3367.00
507.79	3348.00
508.25	3323.00
508.71	3381.00
509.17	3378.00
509.63	3461.00
510.10	3440.00
510.56	3499.00
511.02	3606.00
511.48	3594.00
511.94	3561.00
512.40	3541.00
512.86	3644.00
513.32	3711.00
513.78	3681.00
514.25	3776.00
514.71	4327.00
515.17	3762.00
515.63	3905.00
516.09	3934.00
516.55	3899.00
517.01	4025.00
517.47	4010.00
517.93	4043.00
518.39	4227.00
518.85	4205.00
519.32	4222.00
519.78	4323.00
520.24	4385.00
520.70	4539.00
521.16	4600.00
521.62	4731.00
522.08	4752.00
522.54	4820.00
523.00	4948.00
523.46	4977.00
523.92	5103.00
524.38	5259.00
524.84	5225.00
525.30	5313.00
525.76	5295.00
526.22	5239.00
526.68	5170.00
527.14	5318.00
527.60	5509.00
528.06	5731.00
528.52	5813.00
528.98	5885.00
529.44	5795.00
529.90	5961.00
530.36	5970.00
530.82	6067.00
531.28	6149.00
531.74	6075.00
532.20	6065.00
532.66	6042.00
533.12	6217.00
533.58	6219.00
534.04	6313.00
534.50	6405.00
534.96	6406.00
535.42	6553.00
535.88	6538.00
536.34	6446.00
536.80	6444.00
537.26	6556.00
537.72	6590.00
538.18	6625.00
538.64	6626.00
539.10	6656.00
539.56	6802.00
540.02	6562.00
540.48	6636.00
540.94	6688.00
541.40	6676.00
541.86	6845.00
542.32	6826.00
542.78	6698.00
543.24	6904.00
543.69	6794.00
544.15	6981.00
544.61	6942.00
545.07	6939.00
545.53	6936.00
545.99	7060.00
546.45	6939.00
546.91	7052.00
547.37	7044.00
547.83	6968.00
548.29	7062.00
548.74	7153.00
549.20	7082.00
549.66	7194.00
550.12	7100.00
550.58	7092.00
551.04	7146.00
551.50	7137.00
551.96	7280.00
552.42	7238.00
552.87	7169.00
553.33	7292.00
553.79	7187.00
554.25	7264.00
554.71	7246.00
555.17	7226.00
555.63	7283.00
556.08	7101.00
556.54	7186.00
557.00	7030.00
557.46	7102.00
557.92	7179.00
558.38	6979.00
558.83	6859.00
559.29	6814.00
559.75	6772.00
560.21	6935.00
560.67	6992.00
561.13	6954.00
561.58	6863.00
562.04	6754.00
562.50	6795.00
562.96	6823.00
563.42	6774.00
563.87	6657.00
564.33	6617.00
564.79	6519.00
565.25	6505.00
565.71	6373.00
566.16	6390.00
566.62	6333.00
567.08	6371.00
567.54	6262.00
568.00	6191.00
568.45	6145.00
568.91	6079.00
569.37	6018.00
569.83	6065.00
570.28	5885.00
570.74	5790.00
571.20	5750.00
571.66	5794.00
572.11	5754.00
572.57	5791.00
573.03	5642.00
573.49	5627.00
573.94	5597.00
574.40	5614.00
574.86	5478.00
575.32	5319.00
575.77	5386.00
576.23	5255.00
576.69	5394.00
577.15	5300.00
577.60	5231.00
578.06	5073.00
578.52	5243.00
578.97	5160.00
579.43	5035.00
579.89	5104.00
580.34	5075.00
580.80	5098.00
581.26	5052.00
581.72	5095.00
582.17	5046.00
582.63	4984.00
583.09	4964.00
583.54	4992.00
584.00	4937.00
584.46	4939.00
584.91	4870.00
585.37	4970.00
585.83	4794.00
586.28	4780.00
586.74	4790.00
587.20	4763.00
587.65	4855.00
588.11	4688.00
588.57	4625.00
589.02	4520.00
589.48	4477.00
589.94	4610.00
590.39	4655.00
590.85	4567.00
591.30	4631.00
591.76	4685.00
592.22	4574.00
592.67	4636.00
593.13	4596.00
593.59	4644.00
594.04	4588.00
594.50	4546.00
594.95	4600.00
595.41	4546.00
595.87	4541.00
596.32	4632.00
596.78	4571.00
597.23	4537.00
597.69	4579.00
598.15	4419.00
598.60	4525.00
599.06	4597.00
599.51	4485.00
599.97	4576.00
600.43	4589.00
600.88	4513.00
601.34	4487.00
601.79	4416.00
602.25	4517.00
602.70	4464.00
603.16	4489.00
603.61	4446.00
604.07	4421.00
604.53	4488.00
604.98	4398.00
605.44	4376.00
605.89	4420.00
606.35	4313.00
606.80	4398.00
607.26	4335.00
607.71	4300.00
608.17	4375.00
608.62	4271.00
609.08	4380.00
609.53	4343.00
609.99	4241.00
610.44	4224.00
610.90	4221.00
611.35	4162.00
611.81	4235.00
612.26	4171.00
612.72	4115.00
613.17	4234.00
613.63	4043.00
614.08	4010.00
614.54	4067.00
614.99	4038.00
615.45	4034.00
615.90	4045.00
616.36	3947.00
616.81	3972.00
617.27	4017.00
617.72	3973.00
618.18	3987.00
618.63	3965.00
619.09	3916.00
619.54	4006.00
619.99	3947.00
620.45	3982.00
620.90	3955.00
621.36	3907.00
621.81	3899.00
622.27	3931.00
622.72	3947.00
623.18	3856.00
623.63	3856.00
624.08	3935.00
624.54	3832.00
624.99	3823.00
625.45	3875.00
625.90	3812.00
626.35	3871.00
626.81	3856.00
627.26	3799.00
627.72	3893.00
628.17	3850.00
628.62	3784.00
629.08	3840.00
629.53	3867.00
629.99	3838.00
630.44	3797.00
630.89	3847.00
631.35	3804.00
631.80	3827.00
632.26	3891.00
632.71	3829.00
633.16	3819.00
633.62	3781.00
634.07	3797.00
634.52	3747.00
634.98	3833.00
635.43	3841.00
635.88	3716.00
636.34	3768.00
636.79	3752.00
637.24	3717.00
637.70	3828.00
638.15	3754.00
638.60	3702.00
639.06	3697.00
639.51	3595.00
639.96	3626.00
640.42	3699.00
640.87	3674.00
641.32	3552.00
641.78	3589.00
642.23	3550.00
642.68	3485.00
643.14	3507.00
643.59	3571.00
644.04	3521.00
644.49	3441.00
644.95	3472.00
645.40	3448.00
645.85	3444.00
646.31	3452.00
646.76	3404.00
647.21	3434.00
647.66	3387.00
648.12	3388.00
648.57	3350.00
649.02	3412.00
649.47	3366.00
649.93	3490.00
650.38	3326.00
650.83	3316.00
651.28	3325.00
651.74	3330.00
652.19	3304.00
652.64	3299.00
653.09	3296.00
653.55	3279.00
654.00	3320.00
654.45	3333.00
654.90	3277.00
655.35	3245.00
655.81	3303.00
656.26	3213.00
656.71	3237.00
657.16	3240.00
657.62	3265.00
658.07	3241.00
658.52	3273.00
658.97	3216.00
659.42	3424.00
659.88	3245.00
660.33	3285.00
660.78	3230.00
661.23	3179.00
661.68	3166.00
662.13	3164.00
662.59	3131.00
663.04	3211.00
663.49	3143.00
663.94	3158.00
664.39	3186.00
664.84	3118.00
665.30	3147.00
665.75	3123.00
666.20	3149.00
666.65	3158.00
667.10	3241.00
667.55	3208.00
668.00	3088.00
668.46	3137.00
668.91	3093.00
669.36	3237.00
669.81	3059.00
670.26	3093.00
670.71	3156.00
671.16	3095.00
671.61	3184.00
672.06	3230.00
672.52	3103.00
672.97	3124.00
673.42	3161.00
673.87	3245.00
674.32	3139.00
674.77	3125.00
675.22	3077.00
675.67	3095.00
676.12	3133.00
676.57	3126.00
677.02	3138.00
677.47	3105.00
677.93	3225.00
678.38	3115.00
678.83	3067.00
679.28	3110.00
679.73	3078.00
680.18	3107.00
680.63	3098.00
681.08	3102.00
681.53	3062.00
681.98	3119.00
682.43	3159.00
682.88	3161.00
683.33	3157.00
683.78	3190.00
684.23	3208.00
684.68	3210.00
685.13	3223.00
685.58	3206.00
686.03	3211.00
686.48	3198.00
686.93	3198.00
687.38	3216.00
687.83	3234.00
688.28	3324.00
688.73	3411.00
689.18	3379.00
689.63	3360.00
690.08	3402.00
690.53	3479.00
690.98	3497.00
691.43	3622.00
691.88	3667.00
692.33	3736.00
692.78	3854.00
693.23	3960.00
693.68	4090.00
694.13	4185.00
694.58	4275.00
695.03	4608.00
695.48	4621.00
695.93	4866.00
696.38	5050.00
696.83	5206.00
697.28	5398.00
697.72	5601.00
698.17	5721.00
698.62	6018.00
699.07	6238.00
699.52	6375.00
699.97	6569.00
700.42	6919.00
700.87	7157.00
701.32	7582.00
701.77	7661.00
702.22	7978.00
702.67	8240.00
703.11	8661.00
703.56	8969.00
704.01	9254.00
704.46	9546.00
704.91	9992.00
705.36	10292.00
705.81	10531.00
706.26	10740.00
706.70	11164.00
707.15	11495.00
707.60	11917.00
708.05	12110.00
708.50	12551.00
708.95	12646.00
709.40	13076.00
709.84	13463.00
710.29	13768.00
710.74	14084.00
711.19	14390.00
711.64	14692.00
712.09	15057.00
712.53	15363.00
712.98	15804.00
713.43	16127.00
713.88	16458.00
714.33	16652.00
714.78	16675.00
715.22	16988.00
715.67	17387.00
716.12	17397.00
716.57	16933.00
717.02	16527.00
717.46	16210.00
717.91	16285.00
718.36	16090.00
718.81	16171.00
719.26	16405.00
719.70	16741.00
720.15	17019.00
720.60	17923.00
721.05	19325.00
721.49	20266.00
721.94	20942.00
722.39	21146.00
722.84	20833.00
723.28	20125.00
723.73	20081.00
724.18	20371.00
724.63	20870.00
725.07	21016.00
725.52	21583.00
725.97	22055.00
726.42	22279.00
726.86	22839.00
727.31	22634.00
727.76	22921.00
728.21	23590.00
728.65	23698.00
729.10	23686.00
729.55	24318.00
729.99	25085.00
730.44	25211.00
730.89	25622.00
731.33	26192.00
731.78	26922.00
732.23	27853.00
732.68	28402.00
733.12	28888.00
733.57	29618.00
734.02	30416.00
734.46	30785.00
734.91	30743.00
735.36	31024.00
735.80	31461.00
736.25	31485.00
736.70	31911.00
737.14	32455.00
737.59	32625.00
738.04	32630.00
738.48	32646.00
738.93	32824.00
739.37	33240.00
739.82	34031.00
740.27	34317.00
740.71	34100.00
741.16	34279.00
741.61	34343.00
742.05	34611.00
742.50	34919.00
742.94	35281.00
743.39	35461.00
743.84	35886.00
744.28	35716.00
744.73	35969.00
745.18	36436.00
745.62	36523.00
746.07	36671.00
746.51	36623.00
746.96	36737.00
747.40	36613.00
747.85	36785.00
748.30	36663.00
748.74	36878.00
749.19	36611.00
749.63	37119.00
750.08	36880.00
750.52	37106.00
750.97	36928.00
751.42	37088.00
751.86	37108.00
752.31	37005.00
752.75	37050.00
753.20	36860.00
753.64	36952.00
754.09	37272.00
754.53	37114.00
754.98	37465.00
755.42	37104.00
755.87	36983.00
756.31	37090.00
756.76	36904.00
757.20	36635.00
757.65	36331.00
758.09	35926.00
758.54	35135.00
758.98	32097.00
759.43	25437.00
759.87	18459.00
760.32	13696.00
760.76	13006.00
761.21	15607.00
761.65	19653.00
762.10	20866.00
762.54	20054.00
762.99	18772.00
763.43	19236.00
763.88	20417.00
764.32	22029.00
764.77	24057.00
765.21	25748.00
765.66	27293.00
766.10	28927.00
766.54	30357.00
766.99	31674.00
767.43	32887.00
767.88	34011.00
768.32	34652.00
768.77	35066.00
769.21	35751.00
769.66	36094.00
770.10	36595.00
770.54	36742.00
770.99	36799.00
771.43	36765.00
771.88	36725.00
772.32	36709.00
772.76	36676.00
773.21	36625.00
773.65	36606.00
774.10	36534.00
774.54	36115.00
774.98	36508.00
775.43	36688.00
775.87	36979.00
776.31	37280.00
776.76	37288.00
777.20	36951.00
777.65	36562.00
778.09	36605.00
778.53	36333.00
778.98	36276.00
779.42	36436.00
779.86	36262.00
780.31	35995.00
780.75	36575.00
781.19	36561.00
781.64	36635.00
782.08	36720.00
782.52	36564.00
782.97	36318.00
783.41	35928.00
783.85	35696.00
784.30	35446.00
784.74	35395.00
785.18	35320.00
785.63	35398.00
786.07	35361.00
786.51	35530.00
786.95	35408.00
787.40	35593.00
787.84	35169.00
788.28	34908.00
788.73	34931.00
789.17	34343.00
789.61	33929.00
790.05	33827.00
790.50	33631.00
790.94	33557.00
791.38	33844.00
791.82	33773.00
792.27	33760.00
792.71	33870.00
793.15	34054.00
793.59	33874.00
794.04	33630.00
794.48	33346.00
794.92	33047.00
795.36	32965.00
795.81	32412.00
796.25	32812.00
796.69	32781.00
797.13	33101.00
797.57	33488.00
798.02	33686.00
798.46	33892.00
798.90	33549.00
799.34	33414.00
799.79	32707.00
800.23	32265.00
800.67	32097.00
801.11	31907.00
801.55	32028.00
801.99	31736.00
802.44	32050.00
802.88	32343.00
803.32	32491.00
803.76	32563.00
804.20	32628.00
804.64	32486.00
805.09	32436.00
805.53	32275.00
805.97	32005.00
806.41	31699.00
806.85	31516.00
807.29	31269.00
807.74	31117.00
808.18	31071.00
808.62	31296.00
809.06	31142.00
809.50	31323.00
809.94	31246.00
810.38	31304.00
810.82	31467.00
811.27	31111.00
811.71	30398.00
812.15	29855.00
812.59	28984.00
813.03	28435.00
813.47	27562.00
813.91	26774.00
814.35	26460.00
814.79	26345.00
815.23	26016.00
815.67	25673.00
816.12	25828.00
816.56	25543.00
817.00	25866.00
817.44	26051.00
817.88	26080.00
818.32	25635.00
818.76	25710.00
819.20	25680.00
819.64	25786.00
820.08	26290.00
820.52	26935.00
820.96	27514.00
821.40	27171.00
821.84	26380.00
822.28	24893.00
822.72	24706.00
823.16	24452.00
823.60	25582.00
824.04	27405.00
824.48	27902.00
824.92	27921.00
825.36	27727.00
825.80	27397.00
826.24	27124.00
826.68	27077.00
827.12	27025.00
827.56	26460.00
828.00	26459.00
828.44	26534.00
828.88	26962.00
829.32	27407.00
829.76	27177.00
830.20	27766.00
830.64	27328.00
831.08	27025.00
831.52	26744.00
831.96	26478.00
832.40	26112.00
832.84	26536.00
833.28	26813.00
833.72	27246.00
834.16	27776.00
834.60	28549.00
835.04	28766.00
835.48	28916.00
835.91	28754.00
836.35	28632.00
836.79	28381.00
837.23	28531.00
837.67	27997.00
838.11	27987.00
838.55	28089.00
838.99	28112.00
839.43	28278.00
839.87	28826.00
840.30	29026.00
840.74	29427.00
841.18	29571.00
841.62	29885.00
842.06	29706.00
842.50	29707.00
842.94	29229.00
843.38	28579.00
843.81	28253.00
844.25	27917.00
844.69	27781.00
845.13	27642.00
845.57	28100.00
846.01	28240.00
846.45	28460.00
846.88	28798.00
847.32	29201.00
847.76	29424.00
848.20	29574.00
848.64	29330.00
849.08	28583.00
849.51	28653.00
849.95	27674.00
850.39	27926.00
850.83	28012.00
851.27	27972.00
851.70	27620.00
852.14	27531.00
852.58	26974.00
853.02	26201.00
853.46	25484.00
853.89	25443.00
854.33	25449.00
854.77	26340.00
855.21	28022.00
855.65	28881.00
856.08	29159.00
856.52	29352.00
856.96	29042.00
857.40	28646.00
857.83	28001.00
858.27	27581.00
858.71	27082.00
859.15	27229.00
859.58	27356.00
860.02	27709.00
860.46	28001.00
860.89	28512.00
861.33	28691.00
861.77	29088.00
862.21	29238.00
862.64	29420.00
863.08	29239.00
863.52	28863.00
863.95	28249.00
864.39	27797.00
864.83	26914.00
865.27	25744.00
865.70	25475.00
866.14	25024.00
866.58	25160.00
867.01	26291.00
867.45	27246.00
867.89	28004.00
868.32	28553.00
868.76	28670.00
869.20	28828.00
869.63	28770.00
870.07	28380.00
870.51	27701.00
870.94	27031.00
871.38	26529.00
871.82	26025.00
872.25	26031.00
872.69	26110.00
873.13	26118.00
873.56	26729.00
874.00	27050.00
874.43	27287.00
874.87	27735.00
875.31	27994.00
875.74	27910.00
876.18	28362.00
876.61	28011.00
877.05	27784.00
877.49	27244.00
877.92	27058.00
878.36	26660.00
878.79	26051.00
879.23	25658.00
879.67	25316.00
880.10	25458.00
880.54	25437.00
880.97	25614.00
881.41	26518.00
881.84	27364.00
882.28	27764.00
882.72	28013.00
883.15	28497.00
883.59	28431.00
884.02	28268.00
884.46	27733.00
884.89	27336.00
885.33	26767.00
885.76	26068.00
886.20	25386.00
886.63	25311.00
887.07	24942.00
887.50	25258.00
887.94	25511.00
888.37	25671.00
888.81	26185.00
889.24	26350.00
889.68	26519.00
890.11	26965.00
890.55	27409.00
890.98	27451.00
891.42	27435.00
891.85	27139.00
892.29	26633.00
892.72	26089.00
893.16	25197.00
893.59	24675.00
894.03	23844.00
894.46	23217.00
894.90	22462.00
895.33	21658.00
895.77	21807.00
896.20	21540.00
896.63	21509.00
897.07	21654.00
897.50	21573.00
897.94	21685.00
898.37	22486.00
898.81	21079.00
899.24	20854.00
899.68	22007.00
900.11	21540.00
900.54	20972.00
900.98	20576.00
901.41	20388.00
901.85	20530.00
902.28	20658.00
902.71	21004.00
903.15	21662.00
903.58	22611.00
904.02	22552.00
904.45	22534.00
904.88	22526.00
905.32	22154.00
905.75	22323.00
906.18	21601.00
906.62	21832.00
907.05	20946.00
907.48	21034.00
907.92	20984.00
908.35	20857.00
908.79	20410.00
909.22	20219.00
909.65	19875.00
910.09	19795.00
910.52	19508.00
910.95	19716.00
911.38	20017.00
911.82	19003.00
912.25	19734.00
912.68	20086.00
913.12	19979.00
913.55	20209.00
913.98	20871.00
914.42	21392.00
914.85	21759.00
915.28	20588.00
915.72	20282.00
916.15	20084.00
916.58	19982.00
917.01	19702.00
917.45	18999.00
917.88	19470.00
918.31	19917.00
918.74	20537.00
919.18	21065.00
919.61	20898.00
920.04	21416.00
920.47	21657.00
920.91	21961.00
921.34	21863.00
921.77	21928.00
922.20	22267.00
922.64	22011.00
923.07	22089.00
923.50	21569.00
923.93	21323.00
924.37	21013.00
924.80	20473.00
925.23	20400.00
925.66	19895.00
926.09	18893.00
926.53	18487.00
926.96	17809.00
927.39	17201.00
927.82	16410.00
928.25	15694.00
928.69	15409.00
929.12	15309.00
929.55	14524.00
929.98	14011.00
930.41	13188.00
930.84	12569.00
931.28	11531.00
931.71	10727.00
932.14	9772.00
932.57	9360.00
933.00	8986.00
933.43	8469.00
933.86	8154.00
934.30	7710.00
934.73	8527.00
935.16	8456.00
935.59	7731.00
936.02	8208.00
936.45	8108.00
936.88	8023.00
937.31	8774.00
937.75	9078.00
938.18	9510.00
938.61	9993.00
939.04	10412.00
939.47	10325.00
939.90	9665.00
940.33	9295.00
940.76	8768.00
941.19	8371.00
941.62	8099.00
942.05	8130.00
942.48	7339.00
942.91	7242.00
943.35	7776.00
943.78	7435.00
944.21	7181.00
944.64	7713.00
945.07	8000.00
945.50	7803.00
945.93	8046.00
946.36	8303.00
946.79	8492.00
947.22	8977.00
947.65	8767.00
948.08	8401.00
948.51	8812.00
948.94	9097.00
949.37	8885.00
949.80	8360.00
950.23	8567.00
950.66	8831.00
951.09	8940.00
951.52	8468.00
951.95	8535.00
952.38	8911.00
952.81	9421.00
953.24	9779.00
953.67	10074.00
954.10	9985.00
954.53	10321.00
954.96	10163.00
955.39	10325.00
955.82	11023.00
956.25	10610.00
956.68	10784.00
957.11	11166.00
957.53	10794.00
957.96	10481.00
958.39	10383.00
958.82	10032.00
959.25	10271.00
959.68	10878.00
960.11	11080.00
960.54	11050.00
960.97	11769.00
961.40	12247.00
961.83	12045.00
962.26	12150.00
962.68	13061.00
963.11	13432.00
963.54	13324.00
963.97	13615.00
964.40	13417.00
964.83	13679.00
965.26	13755.00
965.69	13624.00
966.11	13566.00
966.54	13577.00
966.97	14128.00
967.40	14477.00
967.83	14472.00
968.26	14478.00
968.69	14535.00
969.11	14599.00
969.54	14649.00
969.97	14734.00
970.40	15025.00
970.83	15020.00
971.26	15282.00
971.68	15250.00
972.11	15181.00
972.54	15548.00
972.97	15459.00
973.40	15170.00
973.82	14993.00
974.25	15072.00
974.68	14713.00
975.11	14508.00
975.54	14244.00
975.96	14128.00
976.39	14100.00
976.82	14201.00
977.25	14075.00
977.67	14071.00
978.10	14205.00
978.53	14339.00
978.96	14861.00
979.38	15068.00
979.81	15315.00
980.24	15820.00
980.67	15977.00
981.09	16144.00
981.52	16383.00
981.95	16298.00
982.38	16365.00
982.80	16536.00
983.23	16672.00
983.66	16770.00
984.08	16553.00
984.51	16437.00
984.94	16281.00
985.37	16099.00
985.79	15728.00
986.22	15531.00
986.65	15315.00
987.07	15160.00
987.50	15161.00
987.93	15235.00
988.35	15382.00
988.78	15400.00
989.21	15462.00
989.63	15745.00
990.06	16164.00
990.49	16282.00
990.91	16584.00
991.34	16505.00
991.77	16607.00
992.19	16596.00
992.62	16459.00
993.05	16412.00
993.47	16242.00
993.90	16028.00
994.32	15760.00
994.75	15512.00
995.18	15319.00
995.60	15133.00
996.03	14892.00
996.45	14888.00
996.88	14669.00
997.31	14707.00
997.73	14715.00
998.16	14656.00
998.58	14807.00
999.01	14979.00
999.44	15183.00
999.86	15268.00
1000.29	15377.00
1000.71	15357.00
1001.14	15567.00
1001.56	15328.00
1001.99	15265.00
1002.41	15044.00
1002.84	14898.00
1003.27	14459.00
1003.69	14220.00
1004.12	13777.00
1004.54	13614.00
1004.97	13475.00
1005.39	13248.00
1005.82	13240.00
1006.24	13216.00
1006.67	13232.00
1007.09	13204.00
1007.52	13262.00
1007.94	13311.00
1008.37	13388.00
1008.79	13329.00
1009.22	13349.00
1009.64	13325.00
1010.07	13493.00
1010.49	13419.00
1010.92	13501.00
1011.34	13517.00
1011.77	13485.00
1012.19	13352.00
1012.62	13331.00
1013.04	13072.00
1013.46	12816.00
1013.89	12470.00
1014.31	12415.00
1014.74	12232.00
1015.16	12092.00
1015.59	11868.00
1016.01	12009.00
1016.44	11934.00
1016.86	13015.00
1017.28	12278.00
1017.71	12317.00
1018.13	12432.00
1018.56	12536.00
1018.98	12562.00
1019.40	12686.00
1019.83	12607.00
1020.25	12709.00
1020.68	12861.00
1021.10	12921.00
1021.52	12966.00
1021.95	13177.00
1022.37	13122.00
1022.79	12950.00
1023.22	12872.00
1023.64	12736.00
1024.07	12500.00
1024.49	12452.00
1024.91	12250.00
1025.34	12183.00
1025.76	12071.00
1026.18	11987.00
1026.61	11899.00
1027.03	11793.00
1027.45	11953.00
1027.88	11959.00
1028.30	12037.00
1028.72	12088.00
1029.15	12120.00
1029.57	12152.00
1029.99	12261.00
1030.41	12131.00
1030.84	12203.00
1031.26	12127.00
1031.68	11871.00
1032.11	11890.00
1032.53	11709.00
1032.95	11546.00
1033.37	11477.00
1033.80	11344.00
1034.22	11097.00
1034.64	11053.00
1035.06	10862.00
1035.49	10593.00
1035.91	10604.00
1036.33	10420.00
1036.75	10295.00
1037.18	10348.00
1037.60	10371.00
1038.02	10285.00
1038.44	10343.00
1038.87	10202.00
1039.29	10220.00
1039.71	10332.00
1040.13	10417.00
1040.55	10451.00
1040.98	10349.00
1041.40	10153.00
1041.82	10197.00
1042.24	10023.00
1042.66	9900.00
1043.09	9817.00
1043.51	9615.00
1043.93	9513.00
1044.35	9467.00
1044.77	9290.00
1045.20	9155.00
1045.62	9012.00
1046.04	8913.00
1046.46	8914.00
1046.88	8675.00
1047.30	8791.00
1047.72	8646.00
1048.15	8722.00
1048.57	8539.00
1048.99	8502.00
1049.41	8570.00
1049.83	8638.00
1050.25	8527.00
1050.67	8474.00
1051.09	8457.00
1051.52	8405.00
1051.94	8333.00
1052.36	8353.00
1052.78	8251.00
1053.20	8211.00
1053.62	8158.00
1054.04	8163.00
1054.46	7986.00
1054.88	8056.00
1055.30	7945.00
1055.72	7851.00
1056.14	7687.00
1056.57	7789.00
1056.99	7482.00
1057.41	7425.00
1057.83	7356.00
1058.25	7278.00
1058.67	7211.00
1059.09	7115.00
1059.51	6995.00
1059.93	7055.00
1060.35	6854.00
1060.77	6968.00
1061.19	6929.00
1061.61	6869.00
1062.03	6816.00
1062.45	6804.00
1062.87	6786.00
1063.29	6750.00
1063.71	6771.00
1064.13	6762.00
1064.55	6668.00
1064.97	6662.00
1065.39	6670.00
1065.81	6614.00
1066.23	6467.00
1066.65	6429.00
1067.07	6427.00
1067.49	6343.00
1067.91	6246.00
1068.33	6108.00
1068.75	6200.00
1069.17	6218.00
1069.59	6155.00
1070.00	6081.00
1070.42	6029.00
1070.84	5891.00
1071.26	5925.00
1071.68	5748.00
1072.10	5897.00
1072.52	5845.00
1072.94	5778.00
1073.36	5771.00
1073.78	5853.00
1074.20	5749.00
1074.62	5761.00
1075.03	5738.00
1075.45	5765.00
1075.87	5713.00
1076.29	5630.00
1076.71	5713.00
1077.13	5707.00
1077.55	5548.00
1077.97	5563.00
1078.38	5434.00
1078.80	5489.00
1079.22	5411.00
1079.64	5342.00
1080.06	5250.00
1080.48	5285.00
1080.89	5265.00
1081.31	5224.00
1081.73	5134.00
1082.15	5131.00
1082.57	5094.00
1082.99	5045.00
1083.40	5017.00
1083.82	5022.00
1084.24	4983.00
1084.66	4971.00
1085.08	4976.00
1085.49	4905.00
1085.91	4940.00
1086.33	5917.00
1086.75	4903.00
1087.17	4912.00
1087.58	4891.00
1088.00	4878.00
1088.42	4880.00
1088.84	4778.00
1089.25	4749.00
1089.67	4767.00
1090.09	4665.00
1090.51	4654.00
1090.92	4633.00
1091.34	4505.00
1091.76	4557.00
1092.18	4468.00
1092.59	4484.00
1093.01	4435.00
1093.43	4390.00
1093.84	4332.00
1094.26	4335.00
1094.68	4315.00
1095.10	4250.00
1095.51	4293.00
1095.93	4218.00
1096.35	4303.00
1096.76	4221.00
1097.18	4221.00
1097.60	4184.00
1098.01	4191.00
1098.43	4157.00
1098.85	4109.00
1099.26	4104.00
1099.68	4079.00
1100.10	4000.00
1100.51	3965.00
1100.93	3952.00
1101.35	3932.00
1101.76	3929.00
1102.18	4320.00
1102.60	3908.00
1103.01	3750.00
1103.43	3833.00
1103.84	3802.00
1104.26	3779.00
1104.68	3801.00
1105.09	3728.00
1105.51	3757.00
1105.92	3795.00
1106.34	3629.00
1106.76	3656.00
1107.17	3627.00
1107.59	3649.00
1108.00	3542.00
1108.42	3568.00
1108.83	3499.00
1109.25	3554.00
1109.67	3473.00
1110.08	3422.00
1110.50	3434.00
1110.91	3436.00
1111.33	3370.00
1111.74	3352.00
1112.16	3401.00
1112.57	3360.00
1112.99	3294.00
1113.41	3289.00
1113.82	3233.00
1114.24	3236.00
1114.65	3170.00
1115.07	3086.00
1115.48	3018.00
1115.90	2184.00
1116.31	2203.00
1116.73	2201.00
1117.14	2205.00
>>>>>End Processed Spectral Data<<<<<
