SpectraSuite Data File
++++++++++++++++++++++++++++++++++++
Date: Tue May 29 12:59:44 EEST 2018
User: CanSEE
Dark Spectrum Present: No
Reference Spectrum Present: No
Number of Sampled Component Spectra: 1
Spectrometers: MAYP11278
Integration Time (usec): 250000 (MAYP11278)
Spectra Averaged: 1 (MAYP11278)
Boxcar Smoothing: 0 (MAYP11278)
Correct for Electrical Dark: No (MAYP11278)
Strobe/Lamp Enabled: No (MAYP11278)
Correct for Detector Non-linearity: No (MAYP11278)
Correct for Stray Light: No (MAYP11278)
Number of Pixels in Processed Spectrum: 2068
>>>>>Begin Processed Spectral Data<<<<<
187.82	2325.00
188.30	2222.00
188.78	2201.00
189.26	2201.00
189.73	2970.00
190.21	3073.00
190.69	3135.00
191.17	3138.00
191.64	3208.00
192.12	3151.00
192.60	3132.00
193.07	3122.00
193.55	3107.00
194.03	3140.00
194.51	3159.00
194.98	3153.00
195.46	3200.00
195.94	3106.00
196.42	3144.00
196.89	3257.00
197.37	3140.00
197.85	3102.00
198.32	3156.00
198.80	3126.00
199.28	3143.00
199.76	3207.00
200.23	3130.00
200.71	3125.00
201.19	3173.00
201.66	3168.00
202.14	3168.00
202.62	3108.00
203.09	3164.00
203.57	3145.00
204.05	3200.00
204.53	3187.00
205.00	3130.00
205.48	3168.00
205.96	3212.00
206.43	3133.00
206.91	3167.00
207.39	3276.00
207.86	3194.00
208.34	3199.00
208.82	3162.00
209.29	3200.00
209.77	3207.00
210.25	3160.00
210.72	3153.00
211.20	3228.00
211.68	3167.00
212.15	3155.00
212.63	3208.00
213.11	3203.00
213.58	3158.00
214.06	3210.00
214.53	3190.00
215.01	3188.00
215.49	3217.00
215.96	3209.00
216.44	3174.00
216.92	3251.00
217.39	3171.00
217.87	3161.00
218.35	3214.00
218.82	3110.00
219.30	3184.00
219.77	3153.00
220.25	3175.00
220.73	3261.00
221.20	3185.00
221.68	3209.00
222.15	3135.00
222.63	3221.00
223.11	3159.00
223.58	3228.00
224.06	3158.00
224.53	3133.00
225.01	3143.00
225.49	3172.00
225.96	3161.00
226.44	3144.00
226.91	3198.00
227.39	3176.00
227.87	3193.00
228.34	3206.00
228.82	3195.00
229.29	3178.00
229.77	3139.00
230.24	3142.00
230.72	3216.00
231.20	3207.00
231.67	3171.00
232.15	3196.00
232.62	3175.00
233.10	3165.00
233.57	3181.00
234.05	3303.00
234.53	3194.00
235.00	3177.00
235.48	3151.00
235.95	3163.00
236.43	3212.00
236.90	3239.00
237.38	3162.00
237.85	3207.00
238.33	3156.00
238.80	3209.00
239.28	3198.00
239.75	3141.00
240.23	3193.00
240.71	3185.00
241.18	3166.00
241.66	3189.00
242.13	3206.00
242.61	3229.00
243.08	3176.00
243.56	3174.00
244.03	3174.00
244.51	3243.00
244.98	3167.00
245.46	3241.00
245.93	4618.00
246.41	3094.00
246.88	3213.00
247.36	3175.00
247.83	3197.00
248.31	3177.00
248.78	3095.00
249.26	3190.00
249.73	3208.00
250.21	3192.00
250.68	3228.00
251.16	3195.00
251.63	3257.00
252.10	3234.00
252.58	3181.00
253.05	3256.00
253.53	3223.00
254.00	3186.00
254.48	3174.00
254.95	3247.00
255.43	3226.00
255.90	3182.00
256.38	3209.00
256.85	3200.00
257.33	3243.00
257.80	3267.00
258.27	3227.00
258.75	3166.00
259.22	3166.00
259.70	3198.00
260.17	3257.00
260.65	3205.00
261.12	3192.00
261.59	3253.00
262.07	3193.00
262.54	3217.00
263.02	3191.00
263.49	3168.00
263.97	3236.00
264.44	3244.00
264.91	3210.00
265.39	3226.00
265.86	3207.00
266.34	3253.00
266.81	3182.00
267.28	3196.00
267.76	3182.00
268.23	3182.00
268.71	3121.00
269.18	3131.00
269.65	3145.00
270.13	3171.00
270.60	3244.00
271.08	3182.00
271.55	3183.00
272.02	3171.00
272.50	3177.00
272.97	3136.00
273.44	3176.00
273.92	3312.00
274.39	3164.00
274.87	3208.00
275.34	3135.00
275.81	3185.00
276.29	3211.00
276.76	3157.00
277.23	3092.00
277.71	3088.00
278.18	3085.00
278.65	3234.00
279.13	3115.00
279.60	3148.00
280.07	3401.00
280.55	3403.00
281.02	3443.00
281.50	3271.00
281.97	3308.00
282.44	3232.00
282.91	3217.00
283.39	3232.00
283.86	3210.00
284.33	3171.00
284.81	3245.00
285.28	3222.00
285.75	3219.00
286.23	3212.00
286.70	3169.00
287.17	3228.00
287.65	3241.00
288.12	3180.00
288.59	3197.00
289.07	3147.00
289.54	3253.00
290.01	3168.00
290.48	3197.00
290.96	3151.00
291.43	3247.00
291.90	3296.00
292.38	3183.00
292.85	3225.00
293.32	3159.00
293.79	3234.00
294.27	3191.00
294.74	3160.00
295.21	3233.00
295.69	3178.00
296.16	3245.00
296.63	3271.00
297.10	3219.00
297.58	3250.00
298.05	3238.00
298.52	3180.00
298.99	3259.00
299.47	3184.00
299.94	3263.00
300.41	3181.00
300.88	3237.00
301.36	3230.00
301.83	3221.00
302.30	3179.00
302.77	3214.00
303.25	3247.00
303.72	3198.00
304.19	3218.00
304.66	3169.00
305.13	3230.00
305.61	3238.00
306.08	3194.00
306.55	3209.00
307.02	3194.00
307.49	3187.00
307.97	3210.00
308.44	3196.00
308.91	3199.00
309.38	3235.00
309.86	3208.00
310.33	3213.00
310.80	3216.00
311.27	3189.00
311.74	3227.00
312.21	3221.00
312.69	3232.00
313.16	3161.00
313.63	3211.00
314.10	3182.00
314.57	3204.00
315.05	3197.00
315.52	3232.00
315.99	3207.00
316.46	3200.00
316.93	3240.00
317.40	3239.00
317.88	3346.00
318.35	3228.00
318.82	3207.00
319.29	3204.00
319.76	3271.00
320.23	3317.00
320.70	3237.00
321.18	3213.00
321.65	3166.00
322.12	3183.00
322.59	3282.00
323.06	3226.00
323.53	3308.00
324.00	3192.00
324.48	3225.00
324.95	3210.00
325.42	3222.00
325.89	3225.00
326.36	3224.00
326.83	3247.00
327.30	3252.00
327.77	3262.00
328.24	3227.00
328.72	3205.00
329.19	3195.00
329.66	3243.00
330.13	3214.00
330.60	3261.00
331.07	3241.00
331.54	3299.00
332.01	3202.00
332.48	3313.00
332.95	3275.00
333.43	3272.00
333.90	3273.00
334.37	3238.00
334.84	3243.00
335.31	3363.00
335.78	3206.00
336.25	3242.00
336.72	3225.00
337.19	3250.00
337.66	3206.00
338.13	3251.00
338.60	3283.00
339.07	3290.00
339.54	3223.00
340.01	3213.00
340.49	3205.00
340.96	3247.00
341.43	3288.00
341.90	3229.00
342.37	3236.00
342.84	3260.00
343.31	3253.00
343.78	3200.00
344.25	3253.00
344.72	3228.00
345.19	3222.00
345.66	3283.00
346.13	3223.00
346.60	3187.00
347.07	3265.00
347.54	3193.00
348.01	3285.00
348.48	3256.00
348.95	3173.00
349.42	3248.00
349.89	3277.00
350.36	3246.00
350.83	3182.00
351.30	3267.00
351.77	3267.00
352.24	3266.00
352.71	3279.00
353.18	3263.00
353.65	3255.00
354.12	3250.00
354.59	3289.00
355.06	3235.00
355.53	3279.00
356.00	3218.00
356.47	3289.00
356.94	3194.00
357.41	3322.00
357.88	3254.00
358.35	3206.00
358.82	3219.00
359.28	3195.00
359.75	3199.00
360.22	3257.00
360.69	3318.00
361.16	3239.00
361.63	3225.00
362.10	3268.00
362.57	3240.00
363.04	3230.00
363.51	3325.00
363.98	3267.00
364.45	3210.00
364.92	3253.00
365.39	3223.00
365.86	3203.00
366.32	3231.00
366.79	3207.00
367.26	4086.00
367.73	3238.00
368.20	3197.00
368.67	3271.00
369.14	3209.00
369.61	3307.00
370.08	3266.00
370.55	3211.00
371.02	3745.00
371.48	3253.00
371.95	3206.00
372.42	3207.00
372.89	3231.00
373.36	3238.00
373.83	3202.00
374.30	3224.00
374.77	3282.00
375.23	3218.00
375.70	3298.00
376.17	3230.00
376.64	3188.00
377.11	3225.00
377.58	3267.00
378.05	3249.00
378.51	3265.00
378.98	3215.00
379.45	3227.00
379.92	3245.00
380.39	3379.00
380.86	3265.00
381.33	3276.00
381.79	3301.00
382.26	3219.00
382.73	3246.00
383.20	3264.00
383.67	3256.00
384.14	3248.00
384.60	3425.00
385.07	3253.00
385.54	3241.00
386.01	3222.00
386.48	3316.00
386.94	3235.00
387.41	3211.00
387.88	3315.00
388.35	3272.00
388.82	3284.00
389.28	3196.00
389.75	3259.00
390.22	3261.00
390.69	3276.00
391.16	3236.00
391.62	3245.00
392.09	3268.00
392.56	3275.00
393.03	3240.00
393.50	3334.00
393.96	3257.00
394.43	3315.00
394.90	3242.00
395.37	3269.00
395.83	3447.00
396.30	3234.00
396.77	3277.00
397.24	3277.00
397.70	3248.00
398.17	3285.00
398.64	3259.00
399.11	3258.00
399.57	3321.00
400.04	3201.00
400.51	3278.00
400.98	3269.00
401.44	3297.00
401.91	3259.00
402.38	3274.00
402.84	3271.00
403.31	3339.00
403.78	3282.00
404.25	3312.00
404.71	3363.00
405.18	3322.00
405.65	3273.00
406.12	3317.00
406.58	3282.00
407.05	3347.00
407.52	3301.00
407.98	3942.00
408.45	3272.00
408.92	3274.00
409.38	3374.00
409.85	3246.00
410.32	3351.00
410.78	3227.00
411.25	3365.00
411.72	3306.00
412.18	3211.00
412.65	3343.00
413.12	3298.00
413.59	3309.00
414.05	3323.00
414.52	3340.00
414.98	3291.00
415.45	3380.00
415.92	3335.00
416.38	3301.00
416.85	3402.00
417.32	3356.00
417.78	3325.00
418.25	3360.00
418.72	3316.00
419.18	3342.00
419.65	3318.00
420.12	3338.00
420.58	3274.00
421.05	3317.00
421.51	3294.00
421.98	3337.00
422.45	3309.00
422.91	3322.00
423.38	3334.00
423.85	3336.00
424.31	3312.00
424.78	3318.00
425.24	3311.00
425.71	3330.00
426.18	3301.00
426.64	3363.00
427.11	3324.00
427.57	3345.00
428.04	3309.00
428.51	3315.00
428.97	3332.00
429.44	3285.00
429.90	3310.00
430.37	3392.00
430.83	3251.00
431.30	3254.00
431.77	3399.00
432.23	3390.00
432.70	3318.00
433.16	3287.00
433.63	3355.00
434.09	3322.00
434.56	3354.00
435.03	3294.00
435.49	3325.00
435.96	3315.00
436.42	3279.00
436.89	3363.00
437.35	3324.00
437.82	3327.00
438.28	3258.00
438.75	3314.00
439.21	3490.00
439.68	3348.00
440.14	3366.00
440.61	3354.00
441.07	3295.00
441.54	3350.00
442.00	3440.00
442.47	3299.00
442.94	3335.00
443.40	3337.00
443.87	3298.00
444.33	3397.00
444.80	3345.00
445.26	3323.00
445.73	3362.00
446.19	3373.00
446.65	3372.00
447.12	3348.00
447.58	3316.00
448.05	3316.00
448.51	3389.00
448.98	3370.00
449.44	3323.00
449.91	3342.00
450.37	3339.00
450.84	3317.00
451.30	3379.00
451.77	3362.00
452.23	3310.00
452.70	3382.00
453.16	3384.00
453.62	3369.00
454.09	3369.00
454.55	3409.00
455.02	3329.00
455.48	3374.00
455.95	3399.00
456.41	3341.00
456.88	3408.00
457.34	3344.00
457.80	3380.00
458.27	3301.00
458.73	3358.00
459.20	3372.00
459.66	3377.00
460.13	3324.00
460.59	3301.00
461.05	3370.00
461.52	3358.00
461.98	3311.00
462.45	3291.00
462.91	3392.00
463.37	3283.00
463.84	3288.00
464.30	3308.00
464.76	3232.00
465.23	3249.00
465.69	3282.00
466.16	3284.00
466.62	3300.00
467.08	3288.00
467.55	3262.00
468.01	3250.00
468.48	3239.00
468.94	3253.00
469.40	3207.00
469.87	3263.00
470.33	3237.00
470.79	3268.00
471.26	3225.00
471.72	3205.00
472.18	3201.00
472.65	3212.00
473.11	3272.00
473.57	3239.00
474.04	3226.00
474.50	3239.00
474.96	3213.00
475.43	3248.00
475.89	3217.00
476.35	3251.00
476.82	3221.00
477.28	3222.00
477.74	3280.00
478.21	3218.00
478.67	3269.00
479.13	3164.00
479.59	3327.00
480.06	3262.00
480.52	3230.00
480.98	3259.00
481.45	3260.00
481.91	3239.00
482.37	3198.00
482.84	3216.00
483.30	3188.00
483.76	3228.00
484.22	3261.00
484.69	3188.00
485.15	3208.00
485.61	3117.00
486.07	3173.00
486.54	3164.00
487.00	3196.00
487.46	3111.00
487.92	3132.00
488.39	3206.00
488.85	3221.00
489.31	3216.00
489.77	3257.00
490.24	3191.00
490.70	3216.00
491.16	3179.00
491.62	3181.00
492.09	3138.00
492.55	3294.00
493.01	3246.00
493.47	3231.00
493.94	3222.00
494.40	3202.00
494.86	3225.00
495.32	3223.00
495.78	3249.00
496.25	3272.00
496.71	3274.00
497.17	3374.00
497.63	3288.00
498.09	3241.00
498.56	3258.00
499.02	3269.00
499.48	3383.00
499.94	3296.00
500.40	3254.00
500.87	3284.00
501.33	3306.00
501.79	3346.00
502.25	3329.00
502.71	3587.00
503.17	3353.00
503.64	3363.00
504.10	3363.00
504.56	3402.00
505.02	3412.00
505.48	3390.00
505.94	3514.00
506.40	3459.00
506.87	3500.00
507.33	3519.00
507.79	3530.00
508.25	3531.00
508.71	3497.00
509.17	3554.00
509.63	3594.00
510.10	3596.00
510.56	3640.00
511.02	3700.00
511.48	3726.00
511.94	3728.00
512.40	3650.00
512.86	3704.00
513.32	3794.00
513.78	3717.00
514.25	3836.00
514.71	4381.00
515.17	3812.00
515.63	3934.00
516.09	3888.00
516.55	3916.00
517.01	3950.00
517.47	4003.00
517.93	4018.00
518.39	4153.00
518.85	4061.00
519.32	4157.00
519.78	4181.00
520.24	4203.00
520.70	4290.00
521.16	4335.00
521.62	4439.00
522.08	4432.00
522.54	4444.00
523.00	4455.00
523.46	4514.00
523.92	4558.00
524.38	4707.00
524.84	4698.00
525.30	4704.00
525.76	4702.00
526.22	4642.00
526.68	4579.00
527.14	4734.00
527.60	4783.00
528.06	4833.00
528.52	4958.00
528.98	4920.00
529.44	4866.00
529.90	4994.00
530.36	5042.00
530.82	5027.00
531.28	5141.00
531.74	5060.00
532.20	4989.00
532.66	4959.00
533.12	5058.00
533.58	5072.00
534.04	5034.00
534.50	5117.00
534.96	5156.00
535.42	5201.00
535.88	5158.00
536.34	5167.00
536.80	5097.00
537.26	5212.00
537.72	5223.00
538.18	5167.00
538.64	5281.00
539.10	5185.00
539.56	5333.00
540.02	5038.00
540.48	5155.00
540.94	5135.00
541.40	5161.00
541.86	5292.00
542.32	5261.00
542.78	5195.00
543.24	5295.00
543.69	5231.00
544.15	5316.00
544.61	5236.00
545.07	5215.00
545.53	5276.00
545.99	5238.00
546.45	5238.00
546.91	5274.00
547.37	5248.00
547.83	5182.00
548.29	5255.00
548.74	5294.00
549.20	5181.00
549.66	5345.00
550.12	5324.00
550.58	5219.00
551.04	5286.00
551.50	5364.00
551.96	5361.00
552.42	5265.00
552.87	5179.00
553.33	5278.00
553.79	5291.00
554.25	5234.00
554.71	5290.00
555.17	5312.00
555.63	5329.00
556.08	5294.00
556.54	5301.00
557.00	5162.00
557.46	5164.00
557.92	5273.00
558.38	5061.00
558.83	5006.00
559.29	5050.00
559.75	5042.00
560.21	5075.00
560.67	5141.00
561.13	5059.00
561.58	5070.00
562.04	5021.00
562.50	4971.00
562.96	5031.00
563.42	5051.00
563.87	4953.00
564.33	4973.00
564.79	4950.00
565.25	4949.00
565.71	4847.00
566.16	4869.00
566.62	4809.00
567.08	4810.00
567.54	4822.00
568.00	4805.00
568.45	4682.00
568.91	4726.00
569.37	4753.00
569.83	4658.00
570.28	4650.00
570.74	4626.00
571.20	4628.00
571.66	4587.00
572.11	4643.00
572.57	4661.00
573.03	4531.00
573.49	4548.00
573.94	4543.00
574.40	4544.00
574.86	4478.00
575.32	4434.00
575.77	4448.00
576.23	4344.00
576.69	4478.00
577.15	4368.00
577.60	4347.00
578.06	4307.00
578.52	4374.00
578.97	4336.00
579.43	4279.00
579.89	4329.00
580.34	4323.00
580.80	4262.00
581.26	4295.00
581.72	4292.00
582.17	4264.00
582.63	4242.00
583.09	4219.00
583.54	4251.00
584.00	4206.00
584.46	4230.00
584.91	4205.00
585.37	4263.00
585.83	4102.00
586.28	4154.00
586.74	4157.00
587.20	4142.00
587.65	4160.00
588.11	4062.00
588.57	4081.00
589.02	3954.00
589.48	3930.00
589.94	3984.00
590.39	4092.00
590.85	4062.00
591.30	4085.00
591.76	4073.00
592.22	4036.00
592.67	4017.00
593.13	4013.00
593.59	4056.00
594.04	4019.00
594.50	4014.00
594.95	4045.00
595.41	3999.00
595.87	3993.00
596.32	4046.00
596.78	4066.00
597.23	3987.00
597.69	3993.00
598.15	3981.00
598.60	3997.00
599.06	4048.00
599.51	3966.00
599.97	3999.00
600.43	4020.00
600.88	4013.00
601.34	3988.00
601.79	3931.00
602.25	4083.00
602.70	3920.00
603.16	3952.00
603.61	3938.00
604.07	3883.00
604.53	3985.00
604.98	3933.00
605.44	3963.00
605.89	3959.00
606.35	3892.00
606.80	3907.00
607.26	3897.00
607.71	3923.00
608.17	3872.00
608.62	3873.00
609.08	3937.00
609.53	3899.00
609.99	3825.00
610.44	3792.00
610.90	3796.00
611.35	3768.00
611.81	3893.00
612.26	3788.00
612.72	3793.00
613.17	3905.00
613.63	3750.00
614.08	3704.00
614.54	3743.00
614.99	3685.00
615.45	3711.00
615.90	3721.00
616.36	3672.00
616.81	3722.00
617.27	3705.00
617.72	3738.00
618.18	3707.00
618.63	3642.00
619.09	3667.00
619.54	3705.00
619.99	3648.00
620.45	3703.00
620.90	3710.00
621.36	3653.00
621.81	3691.00
622.27	3707.00
622.72	3679.00
623.18	3625.00
623.63	3577.00
624.08	3695.00
624.54	3592.00
624.99	3600.00
625.45	3651.00
625.90	3561.00
626.35	3661.00
626.81	3607.00
627.26	3591.00
627.72	3619.00
628.17	3625.00
628.62	3542.00
629.08	3593.00
629.53	3602.00
629.99	3578.00
630.44	3593.00
630.89	3621.00
631.35	3607.00
631.80	3646.00
632.26	3626.00
632.71	3574.00
633.16	3577.00
633.62	3585.00
634.07	3526.00
634.52	3592.00
634.98	3565.00
635.43	3563.00
635.88	3506.00
636.34	3590.00
636.79	3521.00
637.24	3531.00
637.70	3582.00
638.15	3556.00
638.60	3551.00
639.06	3554.00
639.51	3478.00
639.96	3452.00
640.42	3501.00
640.87	3503.00
641.32	3418.00
641.78	3474.00
642.23	3423.00
642.68	3440.00
643.14	3393.00
643.59	3466.00
644.04	3402.00
644.49	3346.00
644.95	3354.00
645.40	3345.00
645.85	3353.00
646.31	3376.00
646.76	3367.00
647.21	3365.00
647.66	3322.00
648.12	3349.00
648.57	3260.00
649.02	3363.00
649.47	3319.00
649.93	3477.00
650.38	3260.00
650.83	3300.00
651.28	3277.00
651.74	3301.00
652.19	3241.00
652.64	3314.00
653.09	3255.00
653.55	3250.00
654.00	3282.00
654.45	3312.00
654.90	3273.00
655.35	3188.00
655.81	3299.00
656.26	3195.00
656.71	3224.00
657.16	3280.00
657.62	3235.00
658.07	3237.00
658.52	3231.00
658.97	3195.00
659.42	3365.00
659.88	3208.00
660.33	3246.00
660.78	3228.00
661.23	3168.00
661.68	3202.00
662.13	3170.00
662.59	3103.00
663.04	3207.00
663.49	3155.00
663.94	3172.00
664.39	3147.00
664.84	3125.00
665.30	3165.00
665.75	3137.00
666.20	3187.00
666.65	3149.00
667.10	3259.00
667.55	3216.00
668.00	3108.00
668.46	3173.00
668.91	3104.00
669.36	3212.00
669.81	3068.00
670.26	3092.00
670.71	3164.00
671.16	3097.00
671.61	3186.00
672.06	3211.00
672.52	3129.00
672.97	3130.00
673.42	3154.00
673.87	3233.00
674.32	3115.00
674.77	3106.00
675.22	3088.00
675.67	3062.00
676.12	3106.00
676.57	3078.00
677.02	3128.00
677.47	3083.00
677.93	3227.00
678.38	3093.00
678.83	3114.00
679.28	3100.00
679.73	3097.00
680.18	3089.00
680.63	3103.00
681.08	3058.00
681.53	3090.00
681.98	3104.00
682.43	3125.00
682.88	3165.00
683.33	3163.00
683.78	3154.00
684.23	3191.00
684.68	3174.00
685.13	3186.00
685.58	3195.00
686.03	3148.00
686.48	3133.00
686.93	3152.00
687.38	3123.00
687.83	3175.00
688.28	3247.00
688.73	3338.00
689.18	3292.00
689.63	3222.00
690.08	3293.00
690.53	3323.00
690.98	3293.00
691.43	3398.00
691.88	3363.00
692.33	3476.00
692.78	3509.00
693.23	3610.00
693.68	3592.00
694.13	3615.00
694.58	3678.00
695.03	3928.00
695.48	3805.00
695.93	3885.00
696.38	3973.00
696.83	3949.00
697.28	4038.00
697.72	4109.00
698.17	4130.00
698.62	4224.00
699.07	4294.00
699.52	4311.00
699.97	4357.00
700.42	4425.00
700.87	4536.00
701.32	4691.00
701.77	4557.00
702.22	4749.00
702.67	4709.00
703.11	4805.00
703.56	4902.00
704.01	4991.00
704.46	5038.00
704.91	5164.00
705.36	5274.00
705.81	5257.00
706.26	5283.00
706.70	5370.00
707.15	5444.00
707.60	5532.00
708.05	5624.00
708.50	5623.00
708.95	5684.00
709.40	5760.00
709.84	5817.00
710.29	5858.00
710.74	5925.00
711.19	5961.00
711.64	6037.00
712.09	6086.00
712.53	6202.00
712.98	6264.00
713.43	6306.00
713.88	6324.00
714.33	6372.00
714.78	6346.00
715.22	6430.00
715.67	6500.00
716.12	6439.00
716.57	6262.00
717.02	6062.00
717.46	6066.00
717.91	6075.00
718.36	6115.00
718.81	5936.00
719.26	6004.00
719.70	6080.00
720.15	6183.00
720.60	6236.00
721.05	6628.00
721.49	6912.00
721.94	6993.00
722.39	7045.00
722.84	6859.00
723.28	6693.00
723.73	6742.00
724.18	6673.00
724.63	6841.00
725.07	6844.00
725.52	6985.00
725.97	7022.00
726.42	7012.00
726.86	7301.00
727.31	7076.00
727.76	7163.00
728.21	7303.00
728.65	7330.00
729.10	7343.00
729.55	7387.00
729.99	7546.00
730.44	7586.00
730.89	7687.00
731.33	7757.00
731.78	7992.00
732.23	8150.00
732.68	8289.00
733.12	8376.00
733.57	8525.00
734.02	8620.00
734.46	8734.00
734.91	8783.00
735.36	8794.00
735.80	8990.00
736.25	8788.00
736.70	8970.00
737.14	8998.00
737.59	9169.00
738.04	9124.00
738.48	9120.00
738.93	9076.00
739.37	9158.00
739.82	9356.00
740.27	9418.00
740.71	9311.00
741.16	9432.00
741.61	9422.00
742.05	9379.00
742.50	9484.00
742.94	9542.00
743.39	9564.00
743.84	9673.00
744.28	9714.00
744.73	9708.00
745.18	9894.00
745.62	9837.00
746.07	9936.00
746.51	9865.00
746.96	9794.00
747.40	9674.00
747.85	9772.00
748.30	9796.00
748.74	9760.00
749.19	9762.00
749.63	9931.00
750.08	9826.00
750.52	9891.00
750.97	9774.00
751.42	9703.00
751.86	9818.00
752.31	9861.00
752.75	9827.00
753.20	9706.00
753.64	9863.00
754.09	9737.00
754.53	9889.00
754.98	9748.00
755.42	9812.00
755.87	9827.00
756.31	9810.00
756.76	9716.00
757.20	9688.00
757.65	9585.00
758.09	9425.00
758.54	9290.00
758.98	8641.00
759.43	7232.00
759.87	5879.00
760.32	4950.00
760.76	4822.00
761.21	5320.00
761.65	6137.00
762.10	6385.00
762.54	6091.00
762.99	5925.00
763.43	6028.00
763.88	6194.00
764.32	6497.00
764.77	6980.00
765.21	7221.00
765.66	7583.00
766.10	7850.00
766.54	8286.00
766.99	8582.00
767.43	8719.00
767.88	8946.00
768.32	9237.00
768.77	9257.00
769.21	9461.00
769.66	9435.00
770.10	9623.00
770.54	9585.00
770.99	9552.00
771.43	9700.00
771.88	9646.00
772.32	9642.00
772.76	9538.00
773.21	9528.00
773.65	9457.00
774.10	9550.00
774.54	9464.00
774.98	9538.00
775.43	9629.00
775.87	9715.00
776.31	9625.00
776.76	9607.00
777.20	9511.00
777.65	9639.00
778.09	9504.00
778.53	9510.00
778.98	9409.00
779.42	9489.00
779.86	9546.00
780.31	9445.00
780.75	9506.00
781.19	9537.00
781.64	9506.00
782.08	9549.00
782.52	9566.00
782.97	9417.00
783.41	9342.00
783.85	9285.00
784.30	9272.00
784.74	9284.00
785.18	9223.00
785.63	9275.00
786.07	9302.00
786.51	9296.00
786.95	9371.00
787.40	9222.00
787.84	9347.00
788.28	9209.00
788.73	9222.00
789.17	9000.00
789.61	8948.00
790.05	8889.00
790.50	8875.00
790.94	8854.00
791.38	8875.00
791.82	8850.00
792.27	8907.00
792.71	8927.00
793.15	9114.00
793.59	9011.00
794.04	8800.00
794.48	8831.00
794.92	8766.00
795.36	8620.00
795.81	8656.00
796.25	8642.00
796.69	8655.00
797.13	8761.00
797.57	8746.00
798.02	8888.00
798.46	8889.00
798.90	8886.00
799.34	8665.00
799.79	8721.00
800.23	8590.00
800.67	8462.00
801.11	8532.00
801.55	8466.00
801.99	8397.00
802.44	8548.00
802.88	8624.00
803.32	8605.00
803.76	8593.00
804.20	8607.00
804.64	8575.00
805.09	8667.00
805.53	8629.00
805.97	8557.00
806.41	8465.00
806.85	8516.00
807.29	8265.00
807.74	8331.00
808.18	8304.00
808.62	8209.00
809.06	8276.00
809.50	8326.00
809.94	8312.00
810.38	8318.00
810.82	8295.00
811.27	8371.00
811.71	8091.00
812.15	8027.00
812.59	7893.00
813.03	7814.00
813.47	7622.00
813.91	7378.00
814.35	7309.00
814.79	7321.00
815.23	7280.00
815.67	7125.00
816.12	7132.00
816.56	7028.00
817.00	7232.00
817.44	7107.00
817.88	7262.00
818.32	7107.00
818.76	7172.00
819.20	7239.00
819.64	7163.00
820.08	7383.00
820.52	7360.00
820.96	7501.00
821.40	7370.00
821.84	7355.00
822.28	7011.00
822.72	6891.00
823.16	6905.00
823.60	7148.00
824.04	7494.00
824.48	7589.00
824.92	7527.00
825.36	7568.00
825.80	7434.00
826.24	7401.00
826.68	7370.00
827.12	7421.00
827.56	7349.00
828.00	7334.00
828.44	7225.00
828.88	7388.00
829.32	7475.00
829.76	7440.00
830.20	7486.00
830.64	7446.00
831.08	7462.00
831.52	7417.00
831.96	7290.00
832.40	7184.00
832.84	7247.00
833.28	7349.00
833.72	7434.00
834.16	7555.00
834.60	7699.00
835.04	7731.00
835.48	7797.00
835.91	7729.00
836.35	7741.00
836.79	7675.00
837.23	7755.00
837.67	7572.00
838.11	7543.00
838.55	7552.00
838.99	7599.00
839.43	7727.00
839.87	7771.00
840.30	7749.00
840.74	7861.00
841.18	7783.00
841.62	7894.00
842.06	7779.00
842.50	7839.00
842.94	7761.00
843.38	7741.00
843.81	7584.00
844.25	7610.00
844.69	7516.00
845.13	7561.00
845.57	7489.00
846.01	7584.00
846.45	7648.00
846.88	7682.00
847.32	7806.00
847.76	7829.00
848.20	7881.00
848.64	7834.00
849.08	7638.00
849.51	7743.00
849.95	7587.00
850.39	7553.00
850.83	7652.00
851.27	7474.00
851.70	7588.00
852.14	7499.00
852.58	7365.00
853.02	7199.00
853.46	7079.00
853.89	7036.00
854.33	6999.00
854.77	7215.00
855.21	7562.00
855.65	7710.00
856.08	7858.00
856.52	7787.00
856.96	7741.00
857.40	7626.00
857.83	7483.00
858.27	7470.00
858.71	7261.00
859.15	7326.00
859.58	7402.00
860.02	7475.00
860.46	7559.00
860.89	7644.00
861.33	7698.00
861.77	7753.00
862.21	7796.00
862.64	7805.00
863.08	7739.00
863.52	7723.00
863.95	7565.00
864.39	7473.00
864.83	7350.00
865.27	7068.00
865.70	7087.00
866.14	6980.00
866.58	6982.00
867.01	7102.00
867.45	7415.00
867.89	7445.00
868.32	7630.00
868.76	7670.00
869.20	7646.00
869.63	7722.00
870.07	7610.00
870.51	7411.00
870.94	7325.00
871.38	7262.00
871.82	7108.00
872.25	7127.00
872.69	7164.00
873.13	7161.00
873.56	7234.00
874.00	7393.00
874.43	7389.00
874.87	7434.00
875.31	7517.00
875.74	7444.00
876.18	7480.00
876.61	7554.00
877.05	7450.00
877.49	7402.00
877.92	7369.00
878.36	7156.00
878.79	7097.00
879.23	7123.00
879.67	6962.00
880.10	7009.00
880.54	6943.00
880.97	7083.00
881.41	7205.00
881.84	7317.00
882.28	7352.00
882.72	7523.00
883.15	7482.00
883.59	7581.00
884.02	7472.00
884.46	7462.00
884.89	7350.00
885.33	7293.00
885.76	7081.00
886.20	6981.00
886.63	6973.00
887.07	6924.00
887.50	6953.00
887.94	6992.00
888.37	7009.00
888.81	7209.00
889.24	7166.00
889.68	7233.00
890.11	7231.00
890.55	7351.00
890.98	7348.00
891.42	7320.00
891.85	7188.00
892.29	7213.00
892.72	7073.00
893.16	6857.00
893.59	6868.00
894.03	6668.00
894.46	6547.00
894.90	6372.00
895.33	6183.00
895.77	6187.00
896.20	6193.00
896.63	6215.00
897.07	6234.00
897.50	6130.00
897.94	6249.00
898.37	6436.00
898.81	6055.00
899.24	6061.00
899.68	6264.00
900.11	6263.00
900.54	6153.00
900.98	5979.00
901.41	6001.00
901.85	6087.00
902.28	6010.00
902.71	6057.00
903.15	6300.00
903.58	6379.00
904.02	6417.00
904.45	6365.00
904.88	6363.00
905.32	6343.00
905.75	6288.00
906.18	6178.00
906.62	6250.00
907.05	6131.00
907.48	6061.00
907.92	6020.00
908.35	6140.00
908.79	5976.00
909.22	5951.00
909.65	5864.00
910.09	5901.00
910.52	5989.00
910.95	5801.00
911.38	5917.00
911.82	5761.00
912.25	5805.00
912.68	5936.00
913.12	5956.00
913.55	5963.00
913.98	5966.00
914.42	6090.00
914.85	6171.00
915.28	6030.00
915.72	5913.00
916.15	5917.00
916.58	5946.00
917.01	5795.00
917.45	5700.00
917.88	5838.00
918.31	5881.00
918.74	6075.00
919.18	6070.00
919.61	6104.00
920.04	6224.00
920.47	6261.00
920.91	6307.00
921.34	6206.00
921.77	6310.00
922.20	6335.00
922.64	6319.00
923.07	6312.00
923.50	6218.00
923.93	6068.00
924.37	6096.00
924.80	5935.00
925.23	5942.00
925.66	5941.00
926.09	5661.00
926.53	5632.00
926.96	5476.00
927.39	5482.00
927.82	5242.00
928.25	5097.00
928.69	5067.00
929.12	5018.00
929.55	4931.00
929.98	4845.00
930.41	4569.00
930.84	4567.00
931.28	4341.00
931.71	4327.00
932.14	4104.00
932.57	4107.00
933.00	3908.00
933.43	3897.00
933.86	3860.00
934.30	3787.00
934.73	3929.00
935.16	3866.00
935.59	3732.00
936.02	3804.00
936.45	3847.00
936.88	3763.00
937.31	3966.00
937.75	3959.00
938.18	4068.00
938.61	4117.00
939.04	4179.00
939.47	4202.00
939.90	4074.00
940.33	4091.00
940.76	3864.00
941.19	3864.00
941.62	3786.00
942.05	3836.00
942.48	3715.00
942.91	3642.00
943.35	3724.00
943.78	3723.00
944.21	3627.00
944.64	3765.00
945.07	3770.00
945.50	3706.00
945.93	3799.00
946.36	3893.00
946.79	3856.00
947.22	3975.00
947.65	3948.00
948.08	3782.00
948.51	3878.00
948.94	3892.00
949.37	4026.00
949.80	3882.00
950.23	3906.00
950.66	3878.00
951.09	3906.00
951.52	3831.00
951.95	3898.00
952.38	3917.00
952.81	4107.00
953.24	4109.00
953.67	4074.00
954.10	4084.00
954.53	4115.00
954.96	4138.00
955.39	4209.00
955.82	4251.00
956.25	4202.00
956.68	4348.00
957.11	4282.00
957.53	4247.00
957.96	4180.00
958.39	4172.00
958.82	4132.00
959.25	4104.00
959.68	4241.00
960.11	4263.00
960.54	4320.00
960.97	4396.00
961.40	4505.00
961.83	4471.00
962.26	4430.00
962.68	4629.00
963.11	4647.00
963.54	4619.00
963.97	4673.00
964.40	4666.00
964.83	4710.00
965.26	4693.00
965.69	4667.00
966.11	4720.00
966.54	4650.00
966.97	4798.00
967.40	4888.00
967.83	4968.00
968.26	4882.00
968.69	4848.00
969.11	4953.00
969.54	4820.00
969.97	4880.00
970.40	4967.00
970.83	4941.00
971.26	4970.00
971.68	4916.00
972.11	4934.00
972.54	4971.00
972.97	4941.00
973.40	4926.00
973.82	4954.00
974.25	5010.00
974.68	4912.00
975.11	4826.00
975.54	4791.00
975.96	4786.00
976.39	4812.00
976.82	4818.00
977.25	4842.00
977.67	4813.00
978.10	4841.00
978.53	4812.00
978.96	4930.00
979.38	4980.00
979.81	4959.00
980.24	5103.00
980.67	5167.00
981.09	5166.00
981.52	5162.00
981.95	5158.00
982.38	5180.00
982.80	5166.00
983.23	5224.00
983.66	5301.00
984.08	5153.00
984.51	5147.00
984.94	5180.00
985.37	5122.00
985.79	5104.00
986.22	4999.00
986.65	5025.00
987.07	4995.00
987.50	5062.00
987.93	5003.00
988.35	5014.00
988.78	4983.00
989.21	5038.00
989.63	5127.00
990.06	5138.00
990.49	5201.00
990.91	5253.00
991.34	5234.00
991.77	5238.00
992.19	5194.00
992.62	5187.00
993.05	5164.00
993.47	5187.00
993.90	5228.00
994.32	5162.00
994.75	5045.00
995.18	4922.00
995.60	4969.00
996.03	4900.00
996.45	5031.00
996.88	4975.00
997.31	4867.00
997.73	4912.00
998.16	4912.00
998.58	4985.00
999.01	4930.00
999.44	5009.00
999.86	5058.00
1000.29	4990.00
1000.71	5050.00
1001.14	4967.00
1001.56	5025.00
1001.99	5066.00
1002.41	4969.00
1002.84	4982.00
1003.27	4790.00
1003.69	4892.00
1004.12	4831.00
1004.54	4859.00
1004.97	4738.00
1005.39	4640.00
1005.82	4686.00
1006.24	4648.00
1006.67	4650.00
1007.09	4623.00
1007.52	4643.00
1007.94	4669.00
1008.37	4837.00
1008.79	4689.00
1009.22	4780.00
1009.64	4744.00
1010.07	4743.00
1010.49	4771.00
1010.92	4683.00
1011.34	4775.00
1011.77	4742.00
1012.19	4706.00
1012.62	4709.00
1013.04	4623.00
1013.46	4665.00
1013.89	4536.00
1014.31	4601.00
1014.74	4475.00
1015.16	4473.00
1015.59	4474.00
1016.01	4494.00
1016.44	4453.00
1016.86	5450.00
1017.28	4489.00
1017.71	4527.00
1018.13	4671.00
1018.56	4628.00
1018.98	4625.00
1019.40	4566.00
1019.83	4656.00
1020.25	4611.00
1020.68	4662.00
1021.10	4686.00
1021.52	4647.00
1021.95	4778.00
1022.37	4719.00
1022.79	4716.00
1023.22	4658.00
1023.64	4631.00
1024.07	4535.00
1024.49	4625.00
1024.91	4475.00
1025.34	4469.00
1025.76	4551.00
1026.18	4540.00
1026.61	4453.00
1027.03	4510.00
1027.45	4423.00
1027.88	4473.00
1028.30	4586.00
1028.72	4520.00
1029.15	4491.00
1029.57	4556.00
1029.99	4623.00
1030.41	4501.00
1030.84	4516.00
1031.26	4506.00
1031.68	4500.00
1032.11	4509.00
1032.53	4455.00
1032.95	4406.00
1033.37	4402.00
1033.80	4472.00
1034.22	4305.00
1034.64	4365.00
1035.06	4272.00
1035.49	4259.00
1035.91	4255.00
1036.33	4190.00
1036.75	4235.00
1037.18	4262.00
1037.60	4242.00
1038.02	4247.00
1038.44	4248.00
1038.87	4235.00
1039.29	4198.00
1039.71	4210.00
1040.13	4188.00
1040.55	4259.00
1040.98	4284.00
1041.40	4226.00
1041.82	4209.00
1042.24	4165.00
1042.66	4185.00
1043.09	4116.00
1043.51	4122.00
1043.93	4071.00
1044.35	4050.00
1044.77	4053.00
1045.20	4072.00
1045.62	3940.00
1046.04	3959.00
1046.46	3994.00
1046.88	3918.00
1047.30	4005.00
1047.72	3950.00
1048.15	3965.00
1048.57	3928.00
1048.99	3886.00
1049.41	3992.00
1049.83	3970.00
1050.25	3958.00
1050.67	3954.00
1051.09	3907.00
1051.52	3913.00
1051.94	3872.00
1052.36	3897.00
1052.78	3857.00
1053.20	3882.00
1053.62	3820.00
1054.04	3820.00
1054.46	3780.00
1054.88	3904.00
1055.30	3893.00
1055.72	3759.00
1056.14	3787.00
1056.57	3934.00
1056.99	3725.00
1057.41	3719.00
1057.83	3733.00
1058.25	3655.00
1058.67	3681.00
1059.09	3675.00
1059.51	3713.00
1059.93	3677.00
1060.35	3646.00
1060.77	3706.00
1061.19	3701.00
1061.61	3636.00
1062.03	3659.00
1062.45	3567.00
1062.87	3649.00
1063.29	3680.00
1063.71	3595.00
1064.13	3576.00
1064.55	3545.00
1064.97	3618.00
1065.39	3587.00
1065.81	3586.00
1066.23	3556.00
1066.65	3570.00
1067.07	3637.00
1067.49	3549.00
1067.91	3504.00
1068.33	3474.00
1068.75	3542.00
1069.17	3571.00
1069.59	3556.00
1070.00	3464.00
1070.42	3522.00
1070.84	3478.00
1071.26	3444.00
1071.68	3401.00
1072.10	3473.00
1072.52	3501.00
1072.94	3418.00
1073.36	3427.00
1073.78	3409.00
1074.20	3447.00
1074.62	3433.00
1075.03	3414.00
1075.45	3425.00
1075.87	3497.00
1076.29	3427.00
1076.71	3469.00
1077.13	3487.00
1077.55	3358.00
1077.97	3436.00
1078.38	3402.00
1078.80	3375.00
1079.22	3395.00
1079.64	3378.00
1080.06	3365.00
1080.48	3387.00
1080.89	3341.00
1081.31	3309.00
1081.73	3313.00
1082.15	3362.00
1082.57	3387.00
1082.99	3333.00
1083.40	3292.00
1083.82	3382.00
1084.24	3249.00
1084.66	3284.00
1085.08	3300.00
1085.49	3277.00
1085.91	3355.00
1086.33	4274.00
1086.75	3317.00
1087.17	3257.00
1087.58	3295.00
1088.00	3264.00
1088.42	3344.00
1088.84	3292.00
1089.25	3234.00
1089.67	3254.00
1090.09	3260.00
1090.51	3210.00
1090.92	3314.00
1091.34	3192.00
1091.76	3252.00
1092.18	3209.00
1092.59	3202.00
1093.01	3228.00
1093.43	3226.00
1093.84	3175.00
1094.26	3166.00
1094.68	3195.00
1095.10	3182.00
1095.51	3195.00
1095.93	3156.00
1096.35	3210.00
1096.76	3228.00
1097.18	3173.00
1097.60	3156.00
1098.01	3174.00
1098.43	3162.00
1098.85	3161.00
1099.26	3152.00
1099.68	3163.00
1100.10	3092.00
1100.51	3132.00
1100.93	3133.00
1101.35	3130.00
1101.76	3128.00
1102.18	3514.00
1102.60	3163.00
1103.01	3070.00
1103.43	3105.00
1103.84	3092.00
1104.26	3052.00
1104.68	3068.00
1105.09	3035.00
1105.51	3068.00
1105.92	3107.00
1106.34	3036.00
1106.76	3115.00
1107.17	3066.00
1107.59	3076.00
1108.00	3026.00
1108.42	3048.00
1108.83	3003.00
1109.25	3023.00
1109.67	2983.00
1110.08	3017.00
1110.50	2959.00
1110.91	2996.00
1111.33	3001.00
1111.74	2997.00
1112.16	3017.00
1112.57	3022.00
1112.99	2975.00
1113.41	3003.00
1113.82	2982.00
1114.24	3008.00
1114.65	2965.00
1115.07	2870.00
1115.48	2841.00
1115.90	2195.00
1116.31	2199.00
1116.73	2198.00
1117.14	2202.00
>>>>>End Processed Spectral Data<<<<<
