SpectraSuite Data File
++++++++++++++++++++++++++++++++++++
Date: Tue May 29 13:11:14 EEST 2018
User: CanSEE
Dark Spectrum Present: No
Reference Spectrum Present: No
Number of Sampled Component Spectra: 1
Spectrometers: MAYP11278
Integration Time (usec): 230000 (MAYP11278)
Spectra Averaged: 1 (MAYP11278)
Boxcar Smoothing: 0 (MAYP11278)
Correct for Electrical Dark: No (MAYP11278)
Strobe/Lamp Enabled: No (MAYP11278)
Correct for Detector Non-linearity: No (MAYP11278)
Correct for Stray Light: No (MAYP11278)
Number of Pixels in Processed Spectrum: 2068
>>>>>Begin Processed Spectral Data<<<<<
187.82	2336.00
188.30	2236.00
188.78	2214.00
189.26	2210.00
189.73	3240.00
190.21	3413.00
190.69	3559.00
191.17	3556.00
191.64	3591.00
192.12	3570.00
192.60	3587.00
193.07	3535.00
193.55	3589.00
194.03	3567.00
194.51	3590.00
194.98	3539.00
195.46	3599.00
195.94	3565.00
196.42	3522.00
196.89	3719.00
197.37	3555.00
197.85	3542.00
198.32	3580.00
198.80	3535.00
199.28	3594.00
199.76	3569.00
200.23	3565.00
200.71	3565.00
201.19	3613.00
201.66	3599.00
202.14	3587.00
202.62	3552.00
203.09	3574.00
203.57	3565.00
204.05	3629.00
204.53	3627.00
205.00	3531.00
205.48	3537.00
205.96	3635.00
206.43	3540.00
206.91	3598.00
207.39	3681.00
207.86	3529.00
208.34	3573.00
208.82	3550.00
209.29	3643.00
209.77	3582.00
210.25	3599.00
210.72	3566.00
211.20	3584.00
211.68	3557.00
212.15	3560.00
212.63	3667.00
213.11	3603.00
213.58	3575.00
214.06	3703.00
214.53	3594.00
215.01	3652.00
215.49	3608.00
215.96	3603.00
216.44	3616.00
216.92	3623.00
217.39	3548.00
217.87	3590.00
218.35	3626.00
218.82	3557.00
219.30	3513.00
219.77	3573.00
220.25	3552.00
220.73	3647.00
221.20	3525.00
221.68	3608.00
222.15	3585.00
222.63	3593.00
223.11	3516.00
223.58	3604.00
224.06	3528.00
224.53	3513.00
225.01	3544.00
225.49	3551.00
225.96	3538.00
226.44	3575.00
226.91	3597.00
227.39	3565.00
227.87	3606.00
228.34	3593.00
228.82	3625.00
229.29	3553.00
229.77	3587.00
230.24	3559.00
230.72	3603.00
231.20	3640.00
231.67	3563.00
232.15	3588.00
232.62	3530.00
233.10	3544.00
233.57	3583.00
234.05	3735.00
234.53	3576.00
235.00	3547.00
235.48	3564.00
235.95	3588.00
236.43	3643.00
236.90	3612.00
237.38	3539.00
237.85	3585.00
238.33	3543.00
238.80	3558.00
239.28	3569.00
239.75	3535.00
240.23	3607.00
240.71	3621.00
241.18	3576.00
241.66	3543.00
242.13	3597.00
242.61	3627.00
243.08	3538.00
243.56	3580.00
244.03	3601.00
244.51	3669.00
244.98	3578.00
245.46	3607.00
245.93	4965.00
246.41	3511.00
246.88	3597.00
247.36	3563.00
247.83	3602.00
248.31	3602.00
248.78	3548.00
249.26	3581.00
249.73	3663.00
250.21	3595.00
250.68	3631.00
251.16	3635.00
251.63	3690.00
252.10	3614.00
252.58	3573.00
253.05	3630.00
253.53	3601.00
254.00	3601.00
254.48	3608.00
254.95	3627.00
255.43	3635.00
255.90	3588.00
256.38	3616.00
256.85	3626.00
257.33	3668.00
257.80	3757.00
258.27	3620.00
258.75	3601.00
259.22	3616.00
259.70	3632.00
260.17	3663.00
260.65	3580.00
261.12	3604.00
261.59	3625.00
262.07	3586.00
262.54	3624.00
263.02	3625.00
263.49	3521.00
263.97	3597.00
264.44	3665.00
264.91	3617.00
265.39	3640.00
265.86	3575.00
266.34	3669.00
266.81	3618.00
267.28	3598.00
267.76	3642.00
268.23	3610.00
268.71	3577.00
269.18	3557.00
269.65	3624.00
270.13	3632.00
270.60	3602.00
271.08	3575.00
271.55	3612.00
272.02	3563.00
272.50	3547.00
272.97	3537.00
273.44	3587.00
273.92	3706.00
274.39	3591.00
274.87	3611.00
275.34	3583.00
275.81	3594.00
276.29	3587.00
276.76	3607.00
277.23	3494.00
277.71	3501.00
278.18	3481.00
278.65	3653.00
279.13	3567.00
279.60	3576.00
280.07	3837.00
280.55	3821.00
281.02	3925.00
281.50	3660.00
281.97	3760.00
282.44	3653.00
282.91	3665.00
283.39	3643.00
283.86	3565.00
284.33	3618.00
284.81	3645.00
285.28	3615.00
285.75	3608.00
286.23	3647.00
286.70	3578.00
287.17	3651.00
287.65	3714.00
288.12	3563.00
288.59	3607.00
289.07	3542.00
289.54	3687.00
290.01	3608.00
290.48	3628.00
290.96	3604.00
291.43	3641.00
291.90	3715.00
292.38	3574.00
292.85	3647.00
293.32	3574.00
293.79	3620.00
294.27	3602.00
294.74	3597.00
295.21	3598.00
295.69	3655.00
296.16	3686.00
296.63	3660.00
297.10	3631.00
297.58	3614.00
298.05	3668.00
298.52	3589.00
298.99	3661.00
299.47	3633.00
299.94	3651.00
300.41	3618.00
300.88	3657.00
301.36	3700.00
301.83	3627.00
302.30	3585.00
302.77	3648.00
303.25	3668.00
303.72	3585.00
304.19	3610.00
304.66	3591.00
305.13	3643.00
305.61	3664.00
306.08	3645.00
306.55	3635.00
307.02	3577.00
307.49	3588.00
307.97	3602.00
308.44	3591.00
308.91	3614.00
309.38	3635.00
309.86	3679.00
310.33	3640.00
310.80	3651.00
311.27	3580.00
311.74	3711.00
312.21	3604.00
312.69	3690.00
313.16	3594.00
313.63	3617.00
314.10	3669.00
314.57	3597.00
315.05	3589.00
315.52	3695.00
315.99	3661.00
316.46	3627.00
316.93	3653.00
317.40	3629.00
317.88	3766.00
318.35	3607.00
318.82	3621.00
319.29	3593.00
319.76	3663.00
320.23	3728.00
320.70	3670.00
321.18	3677.00
321.65	3585.00
322.12	3572.00
322.59	3696.00
323.06	3618.00
323.53	3753.00
324.00	3585.00
324.48	3665.00
324.95	3631.00
325.42	3651.00
325.89	3629.00
326.36	3661.00
326.83	3657.00
327.30	3715.00
327.77	3715.00
328.24	3701.00
328.72	3627.00
329.19	3673.00
329.66	3649.00
330.13	3635.00
330.60	3720.00
331.07	3671.00
331.54	3745.00
332.01	3637.00
332.48	3727.00
332.95	3700.00
333.43	3702.00
333.90	3685.00
334.37	3707.00
334.84	3691.00
335.31	3821.00
335.78	3618.00
336.25	3659.00
336.72	3649.00
337.19	3676.00
337.66	3612.00
338.13	3600.00
338.60	3713.00
339.07	3668.00
339.54	3546.00
340.01	3562.00
340.49	3568.00
340.96	3597.00
341.43	3677.00
341.90	3575.00
342.37	3691.00
342.84	3607.00
343.31	3602.00
343.78	3563.00
344.25	3593.00
344.72	3597.00
345.19	3613.00
345.66	3641.00
346.13	3558.00
346.60	3563.00
347.07	3678.00
347.54	3570.00
348.01	3669.00
348.48	3589.00
348.95	3554.00
349.42	3623.00
349.89	3622.00
350.36	3619.00
350.83	3534.00
351.30	3617.00
351.77	3676.00
352.24	3611.00
352.71	3569.00
353.18	3568.00
353.65	3636.00
354.12	3633.00
354.59	3649.00
355.06	3609.00
355.53	3673.00
356.00	3611.00
356.47	3701.00
356.94	3557.00
357.41	3744.00
357.88	3647.00
358.35	3546.00
358.82	3524.00
359.28	3578.00
359.75	3599.00
360.22	3641.00
360.69	3675.00
361.16	3611.00
361.63	3621.00
362.10	3580.00
362.57	3577.00
363.04	3614.00
363.51	3732.00
363.98	3683.00
364.45	3584.00
364.92	3655.00
365.39	3596.00
365.86	3587.00
366.32	3621.00
366.79	3614.00
367.26	4846.00
367.73	3963.00
368.20	3610.00
368.67	3683.00
369.14	3589.00
369.61	3650.00
370.08	3651.00
370.55	3633.00
371.02	4528.00
371.48	3637.00
371.95	3603.00
372.42	3569.00
372.89	3624.00
373.36	3629.00
373.83	3555.00
374.30	3596.00
374.77	3679.00
375.23	3558.00
375.70	3719.00
376.17	3636.00
376.64	3598.00
377.11	3589.00
377.58	3689.00
378.05	3634.00
378.51	3667.00
378.98	3675.00
379.45	3633.00
379.92	3669.00
380.39	3774.00
380.86	3643.00
381.33	3667.00
381.79	3679.00
382.26	3563.00
382.73	3647.00
383.20	3591.00
383.67	3676.00
384.14	3618.00
384.60	3897.00
385.07	3650.00
385.54	3639.00
386.01	3641.00
386.48	3715.00
386.94	3621.00
387.41	3585.00
387.88	3683.00
388.35	3679.00
388.82	3696.00
389.28	3620.00
389.75	3691.00
390.22	3659.00
390.69	3681.00
391.16	3623.00
391.62	3621.00
392.09	3649.00
392.56	3595.00
393.03	3665.00
393.50	3739.00
393.96	3669.00
394.43	3678.00
394.90	3600.00
395.37	3683.00
395.83	3838.00
396.30	3630.00
396.77	3701.00
397.24	3686.00
397.70	3666.00
398.17	3671.00
398.64	3669.00
399.11	3645.00
399.57	3691.00
400.04	3625.00
400.51	3651.00
400.98	3663.00
401.44	3683.00
401.91	3708.00
402.38	3666.00
402.84	3656.00
403.31	3728.00
403.78	3676.00
404.25	3749.00
404.71	3785.00
405.18	3750.00
405.65	3668.00
406.12	3738.00
406.58	3683.00
407.05	3754.00
407.52	3695.00
407.98	4258.00
408.45	3756.00
408.92	3694.00
409.38	3782.00
409.85	3701.00
410.32	3793.00
410.78	3745.00
411.25	3862.00
411.72	3731.00
412.18	3686.00
412.65	3772.00
413.12	3781.00
413.59	3840.00
414.05	3839.00
414.52	3923.00
414.98	3855.00
415.45	3932.00
415.92	3876.00
416.38	3875.00
416.85	3979.00
417.32	3870.00
417.78	3884.00
418.25	3939.00
418.72	3918.00
419.18	3981.00
419.65	3944.00
420.12	4013.00
420.58	3907.00
421.05	4049.00
421.51	3988.00
421.98	4026.00
422.45	3974.00
422.91	4020.00
423.38	4082.00
423.85	4073.00
424.31	4095.00
424.78	4115.00
425.24	4082.00
425.71	4177.00
426.18	4112.00
426.64	4205.00
427.11	4139.00
427.57	4165.00
428.04	4124.00
428.51	4249.00
428.97	4142.00
429.44	4096.00
429.90	4103.00
430.37	4228.00
430.83	4135.00
431.30	4190.00
431.77	4370.00
432.23	4312.00
432.70	4287.00
433.16	4283.00
433.63	4290.00
434.09	4279.00
434.56	4358.00
435.03	4379.00
435.49	4450.00
435.96	4433.00
436.42	4405.00
436.89	4537.00
437.35	4415.00
437.82	4407.00
438.28	4341.00
438.75	4429.00
439.21	4638.00
439.68	4509.00
440.14	4571.00
440.61	4590.00
441.07	4524.00
441.54	4618.00
442.00	4741.00
442.47	4592.00
442.94	4673.00
443.40	4677.00
443.87	4637.00
444.33	4752.00
444.80	4738.00
445.26	4641.00
445.73	4636.00
446.19	4774.00
446.65	4817.00
447.12	4809.00
447.58	4826.00
448.05	4814.00
448.51	4932.00
448.98	4928.00
449.44	4960.00
449.91	4961.00
450.37	5015.00
450.84	5049.00
451.30	5001.00
451.77	5027.00
452.23	4903.00
452.70	5051.00
453.16	4967.00
453.62	5035.00
454.09	5065.00
454.55	5067.00
455.02	4997.00
455.48	5153.00
455.95	5203.00
456.41	5119.00
456.88	5185.00
457.34	5121.00
457.80	5085.00
458.27	5082.00
458.73	5172.00
459.20	5197.00
459.66	5170.00
460.13	5135.00
460.59	5145.00
461.05	5276.00
461.52	5278.00
461.98	5281.00
462.45	5165.00
462.91	5324.00
463.37	5195.00
463.84	5194.00
464.30	5173.00
464.76	5121.00
465.23	5171.00
465.69	5317.00
466.16	5223.00
466.62	5169.00
467.08	5223.00
467.55	5205.00
468.01	5264.00
468.48	5249.00
468.94	5233.00
469.40	5160.00
469.87	5194.00
470.33	5197.00
470.79	5221.00
471.26	5239.00
471.72	5263.00
472.18	5251.00
472.65	5290.00
473.11	5371.00
473.57	5328.00
474.04	5377.00
474.50	5361.00
474.96	5268.00
475.43	5405.00
475.89	5357.00
476.35	5407.00
476.82	5378.00
477.28	5488.00
477.74	5520.00
478.21	5472.00
478.67	5508.00
479.13	5421.00
479.59	5559.00
480.06	5566.00
480.52	5527.00
480.98	5497.00
481.45	5554.00
481.91	5579.00
482.37	5517.00
482.84	5515.00
483.30	5488.00
483.76	5538.00
484.22	5544.00
484.69	5459.00
485.15	5333.00
485.61	5149.00
486.07	5173.00
486.54	5275.00
487.00	5356.00
487.46	5402.00
487.92	5442.00
488.39	5485.00
488.85	5524.00
489.31	5634.00
489.77	5703.00
490.24	5625.00
490.70	5691.00
491.16	5587.00
491.62	5573.00
492.09	5601.00
492.55	5788.00
493.01	5843.00
493.47	5729.00
493.94	5821.00
494.40	5927.00
494.86	5915.00
495.32	5937.00
495.78	5923.00
496.25	5972.00
496.71	6107.00
497.17	6205.00
497.63	6156.00
498.09	6015.00
498.56	6132.00
499.02	6309.00
499.48	6403.00
499.94	6260.00
500.40	6211.00
500.87	6326.00
501.33	6303.00
501.79	6434.00
502.25	6538.00
502.71	6952.00
503.17	6666.00
503.64	6691.00
504.10	6720.00
504.56	6919.00
505.02	7111.00
505.48	7085.00
505.94	7331.00
506.40	7337.00
506.87	7447.00
507.33	7472.00
507.79	7559.00
508.25	7562.00
508.71	7914.00
509.17	7898.00
509.63	8110.00
510.10	8270.00
510.56	8354.00
511.02	8619.00
511.48	8776.00
511.94	8778.00
512.40	8773.00
512.86	9057.00
513.32	9216.00
513.78	9222.00
514.25	9539.00
514.71	10315.00
515.17	9779.00
515.63	10088.00
516.09	9991.00
516.55	9640.00
517.01	9906.00
517.47	10406.00
517.93	10573.00
518.39	10880.00
518.85	11273.00
519.32	11763.00
519.78	12027.00
520.24	12271.00
520.70	12557.00
521.16	13073.00
521.62	13326.00
522.08	13445.00
522.54	13455.00
523.00	14082.00
523.46	14420.00
523.92	15007.00
524.38	15207.00
524.84	15331.00
525.30	15538.00
525.76	15587.00
526.22	14999.00
526.68	14996.00
527.14	15609.00
527.60	16264.00
528.06	16796.00
528.52	17461.00
528.98	17793.00
529.44	17585.00
529.90	17723.00
530.36	18489.00
530.82	18722.00
531.28	18894.00
531.74	18559.00
532.20	18289.00
532.66	18275.00
533.12	18930.00
533.58	19168.00
534.04	19341.00
534.50	19653.00
534.96	19926.00
535.42	20304.00
535.88	20381.00
536.34	20268.00
536.80	19813.00
537.26	20440.00
537.72	20718.00
538.18	20839.00
538.64	20868.00
539.10	20595.00
539.56	20685.00
540.02	20525.00
540.48	20472.00
540.94	20953.00
541.40	21098.00
541.86	21361.00
542.32	21527.00
542.78	21413.00
543.24	21826.00
543.69	22076.00
544.15	22273.00
544.61	22224.00
545.07	22323.00
545.53	22569.00
545.99	22624.00
546.45	22597.00
546.91	22834.00
547.37	22337.00
547.83	22570.00
548.29	22885.00
548.74	23160.00
549.20	23489.00
549.66	23393.00
550.12	23440.00
550.58	23380.00
551.04	23553.00
551.50	23784.00
551.96	23960.00
552.42	23604.00
552.87	23577.00
553.33	23837.00
553.79	24122.00
554.25	23990.00
554.71	24269.00
555.17	24185.00
555.63	24153.00
556.08	23957.00
556.54	23791.00
557.00	23582.00
557.46	23692.00
557.92	23836.00
558.38	23029.00
558.83	22984.00
559.29	23098.00
559.75	23102.00
560.21	23318.00
560.67	23854.00
561.13	23493.00
561.58	23018.00
562.04	23166.00
562.50	23158.00
562.96	23374.00
563.42	23033.00
563.87	22834.00
564.33	22841.00
564.79	22615.00
565.25	22367.00
565.71	22019.00
566.16	22100.00
566.62	22082.00
567.08	22206.00
567.54	22134.00
568.00	21682.00
568.45	21224.00
568.91	21221.00
569.37	21233.00
569.83	21005.00
570.28	20522.00
570.74	20247.00
571.20	20196.00
571.66	20575.00
572.11	20587.00
572.57	20400.00
573.03	20329.00
573.49	20119.00
573.94	20064.00
574.40	19890.00
574.86	19381.00
575.32	19126.00
575.77	19061.00
576.23	19182.00
576.69	19193.00
577.15	19138.00
577.60	18799.00
578.06	18358.00
578.52	18438.00
578.97	18447.00
579.43	18523.00
579.89	18459.00
580.34	18472.00
580.80	18251.00
581.26	18251.00
581.72	18320.00
582.17	18382.00
582.63	18340.00
583.09	18184.00
583.54	17947.00
584.00	18026.00
584.46	18106.00
584.91	17733.00
585.37	17555.00
585.83	17285.00
586.28	17331.00
586.74	17436.00
587.20	17432.00
587.65	17309.00
588.11	16931.00
588.57	16087.00
589.02	15422.00
589.48	15483.00
589.94	16062.00
590.39	16564.00
590.85	16467.00
591.30	16529.00
591.76	16371.00
592.22	16303.00
592.67	16385.00
593.13	16390.00
593.59	16364.00
594.04	16248.00
594.50	15955.00
594.95	16217.00
595.41	16266.00
595.87	16219.00
596.32	16304.00
596.78	16318.00
597.23	16333.00
597.69	16151.00
598.15	16057.00
598.60	16097.00
599.06	16145.00
599.51	16145.00
599.97	16042.00
600.43	16018.00
600.88	15903.00
601.34	15944.00
601.79	15711.00
602.25	15971.00
602.70	16015.00
603.16	16070.00
603.61	15903.00
604.07	16005.00
604.53	15902.00
604.98	15787.00
605.44	15769.00
605.89	15664.00
606.35	15471.00
606.80	15518.00
607.26	15360.00
607.71	15274.00
608.17	15178.00
608.62	15115.00
609.08	15042.00
609.53	14897.00
609.99	14672.00
610.44	14707.00
610.90	14669.00
611.35	14514.00
611.81	14571.00
612.26	14357.00
612.72	14391.00
613.17	14195.00
613.63	13874.00
614.08	13923.00
614.54	13953.00
614.99	13899.00
615.45	13773.00
615.90	13537.00
616.36	13294.00
616.81	13411.00
617.27	13337.00
617.72	13579.00
618.18	13613.00
618.63	13405.00
619.09	13463.00
619.54	13512.00
619.99	13369.00
620.45	13498.00
620.90	13390.00
621.36	13135.00
621.81	13240.00
622.27	13340.00
622.72	13089.00
623.18	13033.00
623.63	12833.00
624.08	12876.00
624.54	12724.00
624.99	12743.00
625.45	12721.00
625.90	12835.00
626.35	12872.00
626.81	12986.00
627.26	12775.00
627.72	12611.00
628.17	12581.00
628.62	12685.00
629.08	12686.00
629.53	12663.00
629.99	12485.00
630.44	12681.00
630.89	12853.00
631.35	12599.00
631.80	12494.00
632.26	12779.00
632.71	12785.00
633.16	12793.00
633.62	12585.00
634.07	12580.00
634.52	12568.00
634.98	12610.00
635.43	12629.00
635.88	12525.00
636.34	12421.00
636.79	12487.00
637.24	12373.00
637.70	12428.00
638.15	12419.00
638.60	12269.00
639.06	12079.00
639.51	11879.00
639.96	11686.00
640.42	11696.00
640.87	11551.00
641.32	11537.00
641.78	11389.00
642.23	11314.00
642.68	11169.00
643.14	11088.00
643.59	11065.00
644.04	10825.00
644.49	10729.00
644.95	10668.00
645.40	10516.00
645.85	10361.00
646.31	10289.00
646.76	10219.00
647.21	10055.00
647.66	10028.00
648.12	9857.00
648.57	9708.00
649.02	9721.00
649.47	9485.00
649.93	9726.00
650.38	9563.00
650.83	9643.00
651.28	9458.00
651.74	9292.00
652.19	9366.00
652.64	9393.00
653.09	9363.00
653.55	9293.00
654.00	9267.00
654.45	9152.00
654.90	9011.00
655.35	8757.00
655.81	8299.00
656.26	7889.00
656.71	8162.00
657.16	8483.00
657.62	8637.00
658.07	8580.00
658.52	8595.00
658.97	8485.00
659.42	8639.00
659.88	8291.00
660.33	8380.00
660.78	8320.00
661.23	8195.00
661.68	8043.00
662.13	7990.00
662.59	7880.00
663.04	7827.00
663.49	7528.00
663.94	7664.00
664.39	7550.00
664.84	7431.00
665.30	7494.00
665.75	7302.00
666.20	7206.00
666.65	7185.00
667.10	7253.00
667.55	7134.00
668.00	6969.00
668.46	7084.00
668.91	6904.00
669.36	7009.00
669.81	6865.00
670.26	6850.00
670.71	6803.00
671.16	6696.00
671.61	6759.00
672.06	6781.00
672.52	6632.00
672.97	6697.00
673.42	6586.00
673.87	6735.00
674.32	6612.00
674.77	6619.00
675.22	6527.00
675.67	6569.00
676.12	6649.00
676.57	6466.00
677.02	6553.00
677.47	6533.00
677.93	6667.00
678.38	6475.00
678.83	6560.00
679.28	6555.00
679.73	6523.00
680.18	6595.00
680.63	6657.00
681.08	6501.00
681.53	6589.00
681.98	6697.00
682.43	6746.00
682.88	6844.00
683.33	6880.00
683.78	6948.00
684.23	7079.00
684.68	7093.00
685.13	7267.00
685.58	7385.00
686.03	7380.00
686.48	7116.00
686.93	6874.00
687.38	6936.00
687.83	7493.00
688.28	7916.00
688.73	8241.00
689.18	8397.00
689.63	8619.00
690.08	9041.00
690.53	9464.00
690.98	10011.00
691.43	10432.00
691.88	10929.00
692.33	11413.00
692.78	11969.00
693.23	12474.00
693.68	12951.00
694.13	13494.00
694.58	14139.00
695.03	15025.00
695.48	15466.00
695.93	16359.00
696.38	17251.00
696.83	18090.00
697.28	18768.00
697.72	19149.00
698.17	19817.00
698.62	20553.00
699.07	21263.00
699.52	21832.00
699.97	22581.00
700.42	23175.00
700.87	23952.00
701.32	24727.00
701.77	25080.00
702.22	25925.00
702.67	26624.00
703.11	27586.00
703.56	28396.00
704.01	29365.00
704.46	30270.00
704.91	31185.00
705.36	31564.00
705.81	32043.00
706.26	32428.00
706.70	33262.00
707.15	33917.00
707.60	34720.00
708.05	35152.00
708.50	35814.00
708.95	36362.00
709.40	37096.00
709.84	37707.00
710.29	38023.00
710.74	38509.00
711.19	38933.00
711.64	39568.00
712.09	40107.00
712.53	40484.00
712.98	40911.00
713.43	41551.00
713.88	41896.00
714.33	41900.00
714.78	41729.00
715.22	42331.00
715.67	42750.00
716.12	42123.00
716.57	40724.00
717.02	39260.00
717.46	38098.00
717.91	38023.00
718.36	37024.00
718.81	36796.00
719.26	36961.00
719.70	37595.00
720.15	38137.00
720.60	39975.00
721.05	42673.00
721.49	44763.00
721.94	45573.00
722.39	45729.00
722.84	44498.00
723.28	42841.00
723.73	42391.00
724.18	42322.00
724.63	43188.00
725.07	43149.00
725.52	44039.00
725.97	44651.00
726.42	45104.00
726.86	45904.00
727.31	45197.00
727.76	45348.00
728.21	46405.00
728.65	46166.00
729.10	45970.00
729.55	47008.00
729.99	48001.00
730.44	48336.00
730.89	48726.00
731.33	49666.00
731.78	50624.00
732.23	52073.00
732.68	52896.00
733.12	53474.00
733.57	54572.00
734.02	55504.00
734.46	55732.00
734.91	55932.00
735.36	56202.00
735.80	56360.00
736.25	56470.00
736.70	57123.00
737.14	57600.00
737.59	57892.00
738.04	57812.00
738.48	57308.00
738.93	57276.00
739.37	57966.00
739.82	59040.00
740.27	59300.00
740.71	59076.00
741.16	58854.00
741.61	59197.00
742.05	59324.00
742.50	59668.00
742.94	59916.00
743.39	60297.00
743.84	60160.00
744.28	60525.00
744.73	60424.00
745.18	60855.00
745.62	61175.00
746.07	61253.00
746.51	61445.00
746.96	61299.00
747.40	60850.00
747.85	60820.00
748.30	60718.00
748.74	60450.00
749.19	60213.00
749.63	60838.00
750.08	60834.00
750.52	60810.00
750.97	60508.00
751.42	60624.00
751.86	60493.00
752.31	60488.00
752.75	60163.00
753.20	60352.00
753.64	60269.00
754.09	60435.00
754.53	60522.00
754.98	60263.00
755.42	60200.00
755.87	60090.00
756.31	59958.00
756.76	59342.00
757.20	58806.00
757.65	58626.00
758.09	57804.00
758.54	55577.00
758.98	49746.00
759.43	39182.00
759.87	27665.00
760.32	20666.00
760.76	20471.00
761.21	25244.00
761.65	31129.00
762.10	33012.00
762.54	31450.00
762.99	29748.00
763.43	30397.00
763.88	32343.00
764.32	35470.00
764.77	38608.00
765.21	41258.00
765.66	43806.00
766.10	46240.00
766.54	48871.00
766.99	50904.00
767.43	52746.00
767.88	53926.00
768.32	54912.00
768.77	56024.00
769.21	56784.00
769.66	57358.00
770.10	58238.00
770.54	58631.00
770.99	58732.00
771.43	58392.00
771.88	58239.00
772.32	58241.00
772.76	58018.00
773.21	58083.00
773.65	57889.00
774.10	57712.00
774.54	57637.00
774.98	57836.00
775.43	58105.00
775.87	58915.00
776.31	58971.00
776.76	58906.00
777.20	58761.00
777.65	58124.00
778.09	57569.00
778.53	57591.00
778.98	57316.00
779.42	57131.00
779.86	57405.00
780.31	57199.00
780.75	57441.00
781.19	57734.00
781.64	58015.00
782.08	58001.00
782.52	57777.00
782.97	57015.00
783.41	56525.00
783.85	56430.00
784.30	55891.00
784.74	55846.00
785.18	55753.00
785.63	55565.00
786.07	55745.00
786.51	56011.00
786.95	55891.00
787.40	55715.00
787.84	55488.00
788.28	55273.00
788.73	54747.00
789.17	54115.00
789.61	53647.00
790.05	53413.00
790.50	53036.00
790.94	53006.00
791.38	52791.00
791.82	53086.00
792.27	52936.00
792.71	53210.00
793.15	53468.00
793.59	53312.00
794.04	52841.00
794.48	52699.00
794.92	52155.00
795.36	51553.00
795.81	51570.00
796.25	51171.00
796.69	51063.00
797.13	52069.00
797.57	52382.00
798.02	52744.00
798.46	53078.00
798.90	52779.00
799.34	52182.00
799.79	51664.00
800.23	50965.00
800.67	50469.00
801.11	50283.00
801.55	50042.00
801.99	49907.00
802.44	49989.00
802.88	50321.00
803.32	50594.00
803.76	50812.00
804.20	50978.00
804.64	51320.00
805.09	51186.00
805.53	50920.00
805.97	50520.00
806.41	49765.00
806.85	49393.00
807.29	48980.00
807.74	48605.00
808.18	48720.00
808.62	48723.00
809.06	48704.00
809.50	48786.00
809.94	48868.00
810.38	49110.00
810.82	48851.00
811.27	48502.00
811.71	47755.00
812.15	46809.00
812.59	45551.00
813.03	44405.00
813.47	42860.00
813.91	41928.00
814.35	41108.00
814.79	40778.00
815.23	40608.00
815.67	39712.00
816.12	40205.00
816.56	40045.00
817.00	40287.00
817.44	40792.00
817.88	40789.00
818.32	39976.00
818.76	40168.00
819.20	39966.00
819.64	40539.00
820.08	41216.00
820.52	41933.00
820.96	42937.00
821.40	42217.00
821.84	40815.00
822.28	38789.00
822.72	38329.00
823.16	38172.00
823.60	40250.00
824.04	42768.00
824.48	43409.00
824.92	43493.00
825.36	43449.00
825.80	42867.00
826.24	42420.00
826.68	41959.00
827.12	41900.00
827.56	41016.00
828.00	41001.00
828.44	41569.00
828.88	42221.00
829.32	42499.00
829.76	42501.00
830.20	43248.00
830.64	42547.00
831.08	42321.00
831.52	41832.00
831.96	41014.00
832.40	40659.00
832.84	41356.00
833.28	41419.00
833.72	42245.00
834.16	42924.00
834.60	44212.00
835.04	44708.00
835.48	45236.00
835.91	45081.00
836.35	44848.00
836.79	44273.00
837.23	44317.00
837.67	43773.00
838.11	43318.00
838.55	43421.00
838.99	43441.00
839.43	43941.00
839.87	44510.00
840.30	45002.00
840.74	45502.00
841.18	46035.00
841.62	46268.00
842.06	46221.00
842.50	46017.00
842.94	45400.00
843.38	44919.00
843.81	44100.00
844.25	43699.00
844.69	43273.00
845.13	43103.00
845.57	43420.00
846.01	43645.00
846.45	44037.00
846.88	44346.00
847.32	44980.00
847.76	45588.00
848.20	45545.00
848.64	44971.00
849.08	44413.00
849.51	44221.00
849.95	43075.00
850.39	43272.00
850.83	43814.00
851.27	43418.00
851.70	42877.00
852.14	42563.00
852.58	41760.00
853.02	40444.00
853.46	39235.00
853.89	39215.00
854.33	39132.00
854.77	40947.00
855.21	43413.00
855.65	44765.00
856.08	45397.00
856.52	45503.00
856.96	45034.00
857.40	44144.00
857.83	43543.00
858.27	42624.00
858.71	41967.00
859.15	42136.00
859.58	42148.00
860.02	42724.00
860.46	43009.00
860.89	43956.00
861.33	44210.00
861.77	45019.00
862.21	45106.00
862.64	45332.00
863.08	45293.00
863.52	44836.00
863.95	43962.00
864.39	43122.00
864.83	41573.00
865.27	39633.00
865.70	39099.00
866.14	38387.00
866.58	38659.00
867.01	40422.00
867.45	41885.00
867.89	42869.00
868.32	43650.00
868.76	44205.00
869.20	44354.00
869.63	44398.00
870.07	43868.00
870.51	42918.00
870.94	41986.00
871.38	40999.00
871.82	40460.00
872.25	40012.00
872.69	39943.00
873.13	40224.00
873.56	40753.00
874.00	41067.00
874.43	41792.00
874.87	42503.00
875.31	42846.00
875.74	43148.00
876.18	43363.00
876.61	43258.00
877.05	42925.00
877.49	42330.00
877.92	41712.00
878.36	40925.00
878.79	40303.00
879.23	39506.00
879.67	38934.00
880.10	39059.00
880.54	38967.00
880.97	39488.00
881.41	40758.00
881.84	41614.00
882.28	42327.00
882.72	43104.00
883.15	43507.00
883.59	43579.00
884.02	43405.00
884.46	42998.00
884.89	42426.00
885.33	41414.00
885.76	40126.00
886.20	39363.00
886.63	38954.00
887.07	38626.00
887.50	38703.00
887.94	38915.00
888.37	38922.00
888.81	39590.00
889.24	40118.00
889.68	40569.00
890.11	41067.00
890.55	41748.00
890.98	41800.00
891.42	41902.00
891.85	41561.00
892.29	41200.00
892.72	40043.00
893.16	38837.00
893.59	38043.00
894.03	36779.00
894.46	35526.00
894.90	34215.00
895.33	32966.00
895.77	33055.00
896.20	32518.00
896.63	32742.00
897.07	32727.00
897.50	32459.00
897.94	32736.00
898.37	34111.00
898.81	31957.00
899.24	31957.00
899.68	33604.00
900.11	32722.00
900.54	31871.00
900.98	31505.00
901.41	31247.00
901.85	31361.00
902.28	31686.00
902.71	32045.00
903.15	33065.00
903.58	34373.00
904.02	34343.00
904.45	34201.00
904.88	34008.00
905.32	33820.00
905.75	33704.00
906.18	32574.00
906.62	32847.00
907.05	31852.00
907.48	32168.00
907.92	31538.00
908.35	31778.00
908.79	31325.00
909.22	30888.00
909.65	30553.00
910.09	30395.00
910.52	29796.00
910.95	30123.00
911.38	30390.00
911.82	29090.00
912.25	29877.00
912.68	30459.00
913.12	30244.00
913.55	30479.00
913.98	31350.00
914.42	32883.00
914.85	33121.00
915.28	31578.00
915.72	31251.00
916.15	30624.00
916.58	30847.00
917.01	29743.00
917.45	28901.00
917.88	29837.00
918.31	30448.00
918.74	31576.00
919.18	32078.00
919.61	31886.00
920.04	32603.00
920.47	32829.00
920.91	32989.00
921.34	32946.00
921.77	33268.00
922.20	33831.00
922.64	33463.00
923.07	33301.00
923.50	32971.00
923.93	32501.00
924.37	31888.00
924.80	31356.00
925.23	31058.00
925.66	29986.00
926.09	28578.00
926.53	27870.00
926.96	27041.00
927.39	25734.00
927.82	24452.00
928.25	23373.00
928.69	22979.00
929.12	22508.00
929.55	21301.00
929.98	20503.00
930.41	19377.00
930.84	18345.00
931.28	17039.00
931.71	15553.00
932.14	14012.00
932.57	13362.00
933.00	12780.00
933.43	12269.00
933.86	11403.00
934.30	10946.00
934.73	12535.00
935.16	11767.00
935.59	11079.00
936.02	11845.00
936.45	11370.00
936.88	11445.00
937.31	12647.00
937.75	13345.00
938.18	13986.00
938.61	14570.00
939.04	15465.00
939.47	14979.00
939.90	13862.00
940.33	13491.00
940.76	12569.00
941.19	11996.00
941.62	11764.00
942.05	11565.00
942.48	10311.00
942.91	10414.00
943.35	11051.00
943.78	10144.00
944.21	10112.00
944.64	11080.00
945.07	11407.00
945.50	11097.00
945.93	11412.00
946.36	11822.00
946.79	12277.00
947.22	13000.00
947.65	12621.00
948.08	12049.00
948.51	13022.00
948.94	13399.00
949.37	12799.00
949.80	12071.00
950.23	12496.00
950.66	13028.00
951.09	12925.00
951.52	12372.00
951.95	12443.00
952.38	12931.00
952.81	13763.00
953.24	14543.00
953.67	14668.00
954.10	14558.00
954.53	15138.00
954.96	14947.00
955.39	15531.00
955.82	16368.00
956.25	15760.00
956.68	16155.00
957.11	16523.00
957.53	16001.00
957.96	15770.00
958.39	15465.00
958.82	14909.00
959.25	15435.00
959.68	16333.00
960.11	16432.00
960.54	16646.00
960.97	17632.00
961.40	18183.00
961.83	17865.00
962.26	18335.00
962.68	19918.00
963.11	20023.00
963.54	20193.00
963.97	20517.00
964.40	20505.00
964.83	20843.00
965.26	20949.00
965.69	20666.00
966.11	20544.00
966.54	20720.00
966.97	21831.00
967.40	22010.00
967.83	21914.00
968.26	22058.00
968.69	22158.00
969.11	22349.00
969.54	22110.00
969.97	22353.00
970.40	22809.00
970.83	22728.00
971.26	22925.00
971.68	22979.00
972.11	23026.00
972.54	23694.00
972.97	23421.00
973.40	22961.00
973.82	22780.00
974.25	22821.00
974.68	22513.00
975.11	22367.00
975.54	21837.00
975.96	21495.00
976.39	21645.00
976.82	21691.00
977.25	21408.00
977.67	21424.00
978.10	21491.00
978.53	21842.00
978.96	22418.00
979.38	22881.00
979.81	23023.00
980.24	24037.00
980.67	24325.00
981.09	24419.00
981.52	24897.00
981.95	24862.00
982.38	25151.00
982.80	25083.00
983.23	25573.00
983.66	25586.00
984.08	25264.00
984.51	25141.00
984.94	24862.00
985.37	24462.00
985.79	24070.00
986.22	23450.00
986.65	23315.00
987.07	22935.00
987.50	23027.00
987.93	23092.00
988.35	23051.00
988.78	23056.00
989.21	23411.00
989.63	23708.00
990.06	24157.00
990.49	24500.00
990.91	24877.00
991.34	25262.00
991.77	25220.00
992.19	25257.00
992.62	25107.00
993.05	25083.00
993.47	24607.00
993.90	24485.00
994.32	24065.00
994.75	23578.00
995.18	23181.00
995.60	22956.00
996.03	22617.00
996.45	22313.00
996.88	22299.00
997.31	22067.00
997.73	22132.00
998.16	22093.00
998.58	22226.00
999.01	22457.00
999.44	22564.00
999.86	23008.00
1000.29	23187.00
1000.71	23133.00
1001.14	23355.00
1001.56	23263.00
1001.99	23243.00
1002.41	22645.00
1002.84	22238.00
1003.27	21974.00
1003.69	21436.00
1004.12	20776.00
1004.54	20638.00
1004.97	20266.00
1005.39	20075.00
1005.82	19831.00
1006.24	19835.00
1006.67	19722.00
1007.09	19675.00
1007.52	19759.00
1007.94	19593.00
1008.37	19917.00
1008.79	19849.00
1009.22	19960.00
1009.64	20078.00
1010.07	20221.00
1010.49	20188.00
1010.92	20119.00
1011.34	20230.00
1011.77	20157.00
1012.19	20012.00
1012.62	19821.00
1013.04	19564.00
1013.46	19252.00
1013.89	18735.00
1014.31	18466.00
1014.74	18141.00
1015.16	17911.00
1015.59	17713.00
1016.01	17694.00
1016.44	17820.00
1016.86	19106.00
1017.28	17975.00
1017.71	18120.00
1018.13	18351.00
1018.56	18389.00
1018.98	18620.00
1019.40	18615.00
1019.83	18809.00
1020.25	19043.00
1020.68	19175.00
1021.10	19211.00
1021.52	19334.00
1021.95	19643.00
1022.37	19496.00
1022.79	19295.00
1023.22	19195.00
1023.64	18896.00
1024.07	18789.00
1024.49	18407.00
1024.91	18089.00
1025.34	18072.00
1025.76	17901.00
1026.18	17698.00
1026.61	17493.00
1027.03	17484.00
1027.45	17498.00
1027.88	17488.00
1028.30	17813.00
1028.72	17741.00
1029.15	17866.00
1029.57	17888.00
1029.99	18178.00
1030.41	17763.00
1030.84	17935.00
1031.26	17862.00
1031.68	17619.00
1032.11	17724.00
1032.53	17287.00
1032.95	17028.00
1033.37	16820.00
1033.80	16735.00
1034.22	16265.00
1034.64	16121.00
1035.06	15786.00
1035.49	15645.00
1035.91	15461.00
1036.33	15132.00
1036.75	15055.00
1037.18	15049.00
1037.60	14851.00
1038.02	14731.00
1038.44	14903.00
1038.87	15036.00
1039.29	15008.00
1039.71	15024.00
1040.13	15012.00
1040.55	15112.00
1040.98	15051.00
1041.40	14937.00
1041.82	14732.00
1042.24	14634.00
1042.66	14491.00
1043.09	14195.00
1043.51	14064.00
1043.93	13812.00
1044.35	13716.00
1044.77	13493.00
1045.20	13202.00
1045.62	12957.00
1046.04	12817.00
1046.46	12671.00
1046.88	12528.00
1047.30	12580.00
1047.72	12427.00
1048.15	12341.00
1048.57	12281.00
1048.99	12222.00
1049.41	12233.00
1049.83	12184.00
1050.25	12135.00
1050.67	12084.00
1051.09	12005.00
1051.52	11938.00
1051.94	11860.00
1052.36	11831.00
1052.78	11718.00
1053.20	11783.00
1053.62	11597.00
1054.04	11503.00
1054.46	11411.00
1054.88	11423.00
1055.30	11209.00
1055.72	11031.00
1056.14	10824.00
1056.57	10914.00
1056.99	10549.00
1057.41	10525.00
1057.83	10280.00
1058.25	10174.00
1058.67	10042.00
1059.09	9940.00
1059.51	9921.00
1059.93	9769.00
1060.35	9777.00
1060.77	9723.00
1061.19	9717.00
1061.61	9612.00
1062.03	9573.00
1062.45	9435.00
1062.87	9459.00
1063.29	9396.00
1063.71	9457.00
1064.13	9271.00
1064.55	9227.00
1064.97	9267.00
1065.39	9081.00
1065.81	9088.00
1066.23	8991.00
1066.65	8851.00
1067.07	8970.00
1067.49	8640.00
1067.91	8588.00
1068.33	8513.00
1068.75	8571.00
1069.17	8405.00
1069.59	8325.00
1070.00	8180.00
1070.42	8224.00
1070.84	8022.00
1071.26	8025.00
1071.68	7888.00
1072.10	7908.00
1072.52	7902.00
1072.94	7774.00
1073.36	7821.00
1073.78	7723.00
1074.20	7858.00
1074.62	7706.00
1075.03	7738.00
1075.45	7671.00
1075.87	7646.00
1076.29	7671.00
1076.71	7670.00
1077.13	7609.00
1077.55	7429.00
1077.97	7445.00
1078.38	7393.00
1078.80	7345.00
1079.22	7193.00
1079.64	7121.00
1080.06	6978.00
1080.48	6957.00
1080.89	6896.00
1081.31	6793.00
1081.73	6790.00
1082.15	6728.00
1082.57	6751.00
1082.99	6629.00
1083.40	6626.00
1083.82	6585.00
1084.24	6479.00
1084.66	6503.00
1085.08	6526.00
1085.49	6383.00
1085.91	6425.00
1086.33	7691.00
1086.75	6373.00
1087.17	6348.00
1087.58	6344.00
1088.00	6343.00
1088.42	6326.00
1088.84	6269.00
1089.25	6119.00
1089.67	6143.00
1090.09	6068.00
1090.51	5979.00
1090.92	5930.00
1091.34	5849.00
1091.76	5759.00
1092.18	5686.00
1092.59	5688.00
1093.01	5618.00
1093.43	5644.00
1093.84	5520.00
1094.26	5467.00
1094.68	5489.00
1095.10	5428.00
1095.51	5400.00
1095.93	5360.00
1096.35	5338.00
1096.76	5362.00
1097.18	5280.00
1097.60	5209.00
1098.01	5148.00
1098.43	5149.00
1098.85	5148.00
1099.26	5103.00
1099.68	5068.00
1100.10	4967.00
1100.51	4887.00
1100.93	4871.00
1101.35	4872.00
1101.76	4770.00
1102.18	5269.00
1102.60	4747.00
1103.01	4613.00
1103.43	4679.00
1103.84	4642.00
1104.26	4643.00
1104.68	4637.00
1105.09	4565.00
1105.51	4546.00
1105.92	4587.00
1106.34	4484.00
1106.76	4460.00
1107.17	4418.00
1107.59	4323.00
1108.00	4221.00
1108.42	4241.00
1108.83	4139.00
1109.25	4177.00
1109.67	4107.00
1110.08	4112.00
1110.50	4083.00
1110.91	4032.00
1111.33	4024.00
1111.74	3969.00
1112.16	3929.00
1112.57	3949.00
1112.99	3831.00
1113.41	3841.00
1113.82	3737.00
1114.24	3695.00
1114.65	3619.00
1115.07	3500.00
1115.48	3409.00
1115.90	2183.00
1116.31	2211.00
1116.73	2220.00
1117.14	2217.00
>>>>>End Processed Spectral Data<<<<<
