SpectraSuite Data File
++++++++++++++++++++++++++++++++++++
Date: Tue May 29 13:19:32 EEST 2018
User: CanSEE
Dark Spectrum Present: No
Reference Spectrum Present: No
Number of Sampled Component Spectra: 1
Spectrometers: MAYP11278
Integration Time (usec): 220000 (MAYP11278)
Spectra Averaged: 1 (MAYP11278)
Boxcar Smoothing: 0 (MAYP11278)
Correct for Electrical Dark: No (MAYP11278)
Strobe/Lamp Enabled: No (MAYP11278)
Correct for Detector Non-linearity: No (MAYP11278)
Correct for Stray Light: No (MAYP11278)
Number of Pixels in Processed Spectrum: 2068
>>>>>Begin Processed Spectral Data<<<<<
187.82	2349.00
188.30	2245.00
188.78	2225.00
189.26	2224.00
189.73	3454.00
190.21	3634.00
190.69	3779.00
191.17	3798.00
191.64	3854.00
192.12	3806.00
192.60	3775.00
193.07	3784.00
193.55	3812.00
194.03	3766.00
194.51	3806.00
194.98	3780.00
195.46	3847.00
195.94	3804.00
196.42	3760.00
196.89	3896.00
197.37	3801.00
197.85	3734.00
198.32	3816.00
198.80	3798.00
199.28	3817.00
199.76	3850.00
200.23	3783.00
200.71	3814.00
201.19	3832.00
201.66	3849.00
202.14	3797.00
202.62	3743.00
203.09	3818.00
203.57	3791.00
204.05	3812.00
204.53	3884.00
205.00	3758.00
205.48	3766.00
205.96	3887.00
206.43	3757.00
206.91	3791.00
207.39	3948.00
207.86	3794.00
208.34	3857.00
208.82	3800.00
209.29	3855.00
209.77	3836.00
210.25	3803.00
210.72	3808.00
211.20	3778.00
211.68	3793.00
212.15	3782.00
212.63	3860.00
213.11	3830.00
213.58	3754.00
214.06	3892.00
214.53	3830.00
215.01	3875.00
215.49	3838.00
215.96	3811.00
216.44	3799.00
216.92	3805.00
217.39	3764.00
217.87	3788.00
218.35	3858.00
218.82	3736.00
219.30	3773.00
219.77	3757.00
220.25	3816.00
220.73	3918.00
221.20	3759.00
221.68	3858.00
222.15	3771.00
222.63	3816.00
223.11	3738.00
223.58	3816.00
224.06	3775.00
224.53	3773.00
225.01	3758.00
225.49	3745.00
225.96	3793.00
226.44	3772.00
226.91	3830.00
227.39	3760.00
227.87	3808.00
228.34	3783.00
228.82	3816.00
229.29	3777.00
229.77	3804.00
230.24	3778.00
230.72	3810.00
231.20	3847.00
231.67	3784.00
232.15	3787.00
232.62	3742.00
233.10	3763.00
233.57	3838.00
234.05	4027.00
234.53	3821.00
235.00	3784.00
235.48	3755.00
235.95	3839.00
236.43	3843.00
236.90	3899.00
237.38	3757.00
237.85	3813.00
238.33	3834.00
238.80	3810.00
239.28	3752.00
239.75	3777.00
240.23	3842.00
240.71	3867.00
241.18	3842.00
241.66	3797.00
242.13	3826.00
242.61	3878.00
243.08	3763.00
243.56	3770.00
244.03	3867.00
244.51	3894.00
244.98	3805.00
245.46	3830.00
245.93	5863.00
246.41	3717.00
246.88	3804.00
247.36	3808.00
247.83	3836.00
248.31	3849.00
248.78	3746.00
249.26	3819.00
249.73	3858.00
250.21	3773.00
250.68	3880.00
251.16	3866.00
251.63	3896.00
252.10	3885.00
252.58	3805.00
253.05	3912.00
253.53	3820.00
254.00	3849.00
254.48	3854.00
254.95	3849.00
255.43	3912.00
255.90	3840.00
256.38	3868.00
256.85	3832.00
257.33	3872.00
257.80	3986.00
258.27	3871.00
258.75	3789.00
259.22	3826.00
259.70	3818.00
260.17	3871.00
260.65	3811.00
261.12	3792.00
261.59	3871.00
262.07	3796.00
262.54	3860.00
263.02	3841.00
263.49	3770.00
263.97	3851.00
264.44	3874.00
264.91	3839.00
265.39	3825.00
265.86	3843.00
266.34	3900.00
266.81	3784.00
267.28	3835.00
267.76	3836.00
268.23	3887.00
268.71	3759.00
269.18	3773.00
269.65	3809.00
270.13	3860.00
270.60	3885.00
271.08	3846.00
271.55	3804.00
272.02	3804.00
272.50	3802.00
272.97	3733.00
273.44	3878.00
273.92	3998.00
274.39	3841.00
274.87	3871.00
275.34	3779.00
275.81	3824.00
276.29	3824.00
276.76	3825.00
277.23	3722.00
277.71	3724.00
278.18	3704.00
278.65	3922.00
279.13	3710.00
279.60	3808.00
280.07	4092.00
280.55	4068.00
281.02	4134.00
281.50	3834.00
281.97	4016.00
282.44	3892.00
282.91	3820.00
283.39	3878.00
283.86	3858.00
284.33	3778.00
284.81	3914.00
285.28	3857.00
285.75	3862.00
286.23	3860.00
286.70	3775.00
287.17	3900.00
287.65	3946.00
288.12	3850.00
288.59	3872.00
289.07	3760.00
289.54	3904.00
290.01	3786.00
290.48	3902.00
290.96	3857.00
291.43	3886.00
291.90	3947.00
292.38	3825.00
292.85	3899.00
293.32	3825.00
293.79	3881.00
294.27	3821.00
294.74	3801.00
295.21	3874.00
295.69	3890.00
296.16	3973.00
296.63	3906.00
297.10	3903.00
297.58	3872.00
298.05	3902.00
298.52	3858.00
298.99	3946.00
299.47	3791.00
299.94	3858.00
300.41	3847.00
300.88	3914.00
301.36	3871.00
301.83	3859.00
302.30	3815.00
302.77	3898.00
303.25	3916.00
303.72	3835.00
304.19	3840.00
304.66	3784.00
305.13	3852.00
305.61	3855.00
306.08	3860.00
306.55	3901.00
307.02	3780.00
307.49	3789.00
307.97	3820.00
308.44	3838.00
308.91	3886.00
309.38	3890.00
309.86	3853.00
310.33	3880.00
310.80	3841.00
311.27	3806.00
311.74	3873.00
312.21	3874.00
312.69	3940.00
313.16	3820.00
313.63	3828.00
314.10	3858.00
314.57	3825.00
315.05	3826.00
315.52	3864.00
315.99	3883.00
316.46	3840.00
316.93	3839.00
317.40	3860.00
317.88	3965.00
318.35	3875.00
318.82	3821.00
319.29	3775.00
319.76	3882.00
320.23	3952.00
320.70	3906.00
321.18	3838.00
321.65	3799.00
322.12	3789.00
322.59	3962.00
323.06	3841.00
323.53	3966.00
324.00	3763.00
324.48	3895.00
324.95	3871.00
325.42	3912.00
325.89	3856.00
326.36	3854.00
326.83	3896.00
327.30	3860.00
327.77	3912.00
328.24	3908.00
328.72	3841.00
329.19	3899.00
329.66	3910.00
330.13	3858.00
330.60	3916.00
331.07	3930.00
331.54	3976.00
332.01	3869.00
332.48	3952.00
332.95	3944.00
333.43	3924.00
333.90	3920.00
334.37	3924.00
334.84	3872.00
335.31	4072.00
335.78	3876.00
336.25	3874.00
336.72	3848.00
337.19	3836.00
337.66	3798.00
338.13	3824.00
338.60	3918.00
339.07	3883.00
339.54	3777.00
340.01	3778.00
340.49	3780.00
340.96	3875.00
341.43	3890.00
341.90	3756.00
342.37	3834.00
342.84	3824.00
343.31	3816.00
343.78	3796.00
344.25	3807.00
344.72	3798.00
345.19	3813.00
345.66	3874.00
346.13	3787.00
346.60	3739.00
347.07	3895.00
347.54	3809.00
348.01	3884.00
348.48	3830.00
348.95	3749.00
349.42	3839.00
349.89	3870.00
350.36	3817.00
350.83	3775.00
351.30	3816.00
351.77	3938.00
352.24	3813.00
352.71	3809.00
353.18	3794.00
353.65	3860.00
354.12	3841.00
354.59	3876.00
355.06	3828.00
355.53	3895.00
356.00	3881.00
356.47	3924.00
356.94	3803.00
357.41	4025.00
357.88	3867.00
358.35	3787.00
358.82	3794.00
359.28	3748.00
359.75	3768.00
360.22	3924.00
360.69	3908.00
361.16	3826.00
361.63	3821.00
362.10	3853.00
362.57	3855.00
363.04	3814.00
363.51	3924.00
363.98	3812.00
364.45	3781.00
364.92	3850.00
365.39	3801.00
365.86	3794.00
366.32	3868.00
366.79	3873.00
367.26	4744.00
367.73	4200.00
368.20	3793.00
368.67	3964.00
369.14	3785.00
369.61	3876.00
370.08	3880.00
370.55	3814.00
371.02	4640.00
371.48	3855.00
371.95	3823.00
372.42	3804.00
372.89	3890.00
373.36	3826.00
373.83	3838.00
374.30	3787.00
374.77	3892.00
375.23	3788.00
375.70	3954.00
376.17	3816.00
376.64	3812.00
377.11	3805.00
377.58	3908.00
378.05	3899.00
378.51	3871.00
378.98	3860.00
379.45	3850.00
379.92	3908.00
380.39	4002.00
380.86	3826.00
381.33	3936.00
381.79	3930.00
382.26	3792.00
382.73	3865.00
383.20	3916.00
383.67	3914.00
384.14	3872.00
384.60	4126.00
385.07	3869.00
385.54	3856.00
386.01	3864.00
386.48	3979.00
386.94	3856.00
387.41	3837.00
387.88	3896.00
388.35	3922.00
388.82	3958.00
389.28	3856.00
389.75	3934.00
390.22	3914.00
390.69	3948.00
391.16	3892.00
391.62	3900.00
392.09	3932.00
392.56	3887.00
393.03	3880.00
393.50	4090.00
393.96	3908.00
394.43	4024.00
394.90	3920.00
395.37	4004.00
395.83	4147.00
396.30	3849.00
396.77	3958.00
397.24	3958.00
397.70	3910.00
398.17	4006.00
398.64	3983.00
399.11	3954.00
399.57	4095.00
400.04	3946.00
400.51	4035.00
400.98	4021.00
401.44	4070.00
401.91	4057.00
402.38	4064.00
402.84	4088.00
403.31	4138.00
403.78	4102.00
404.25	4122.00
404.71	4148.00
405.18	4162.00
405.65	4058.00
406.12	4125.00
406.58	4106.00
407.05	4210.00
407.52	4104.00
407.98	4944.00
408.45	4136.00
408.92	4084.00
409.38	4141.00
409.85	4035.00
410.32	4114.00
410.78	4150.00
411.25	4210.00
411.72	4168.00
412.18	4064.00
412.65	4237.00
413.12	4180.00
413.59	4221.00
414.05	4208.00
414.52	4254.00
414.98	4182.00
415.45	4278.00
415.92	4260.00
416.38	4224.00
416.85	4282.00
417.32	4220.00
417.78	4174.00
418.25	4242.00
418.72	4232.00
419.18	4286.00
419.65	4182.00
420.12	4228.00
420.58	4230.00
421.05	4268.00
421.51	4206.00
421.98	4284.00
422.45	4196.00
422.91	4222.00
423.38	4235.00
423.85	4328.00
424.31	4266.00
424.78	4259.00
425.24	4244.00
425.71	4348.00
426.18	4280.00
426.64	4305.00
427.11	4301.00
427.57	4319.00
428.04	4206.00
428.51	4291.00
428.97	4210.00
429.44	4176.00
429.90	4182.00
430.37	4352.00
430.83	4144.00
431.30	4254.00
431.77	4376.00
432.23	4333.00
432.70	4278.00
433.16	4270.00
433.63	4296.00
434.09	4284.00
434.56	4390.00
435.03	4250.00
435.49	4370.00
435.96	4370.00
436.42	4322.00
436.89	4412.00
437.35	4372.00
437.82	4287.00
438.28	4289.00
438.75	4323.00
439.21	4572.00
439.68	4424.00
440.14	4428.00
440.61	4488.00
441.07	4382.00
441.54	4436.00
442.00	4550.00
442.47	4416.00
442.94	4468.00
443.40	4436.00
443.87	4428.00
444.33	4610.00
444.80	4572.00
445.26	4491.00
445.73	4578.00
446.19	4566.00
446.65	4574.00
447.12	4628.00
447.58	4558.00
448.05	4552.00
448.51	4694.00
448.98	4694.00
449.44	4671.00
449.91	4668.00
450.37	4666.00
450.84	4702.00
451.30	4765.00
451.77	4744.00
452.23	4632.00
452.70	4736.00
453.16	4718.00
453.62	4692.00
454.09	4766.00
454.55	4770.00
455.02	4690.00
455.48	4822.00
455.95	4864.00
456.41	4745.00
456.88	4856.00
457.34	4850.00
457.80	4777.00
458.27	4730.00
458.73	4873.00
459.20	4914.00
459.66	4867.00
460.13	4757.00
460.59	4776.00
461.05	4929.00
461.52	4930.00
461.98	4854.00
462.45	4755.00
462.91	4912.00
463.37	4786.00
463.84	4789.00
464.30	4834.00
464.76	4782.00
465.23	4803.00
465.69	4848.00
466.16	4830.00
466.62	4775.00
467.08	4826.00
467.55	4847.00
468.01	4820.00
468.48	4834.00
468.94	4773.00
469.40	4732.00
469.87	4756.00
470.33	4743.00
470.79	4736.00
471.26	4827.00
471.72	4832.00
472.18	4860.00
472.65	4858.00
473.11	4938.00
473.57	4881.00
474.04	4843.00
474.50	4920.00
474.96	4823.00
475.43	4888.00
475.89	4832.00
476.35	4902.00
476.82	4845.00
477.28	4914.00
477.74	4956.00
478.21	4958.00
478.67	5014.00
479.13	4941.00
479.59	5068.00
480.06	4886.00
480.52	4970.00
480.98	4966.00
481.45	4950.00
481.91	4952.00
482.37	4906.00
482.84	4982.00
483.30	4897.00
483.76	4920.00
484.22	5037.00
484.69	4914.00
485.15	4835.00
485.61	4690.00
486.07	4785.00
486.54	4810.00
487.00	4879.00
487.46	4900.00
487.92	4894.00
488.39	4962.00
488.85	4968.00
489.31	5086.00
489.77	5138.00
490.24	5056.00
490.70	5114.00
491.16	5026.00
491.62	4980.00
492.09	5085.00
492.55	5266.00
493.01	5192.00
493.47	5280.00
493.94	5248.00
494.40	5240.00
494.86	5352.00
495.32	5309.00
495.78	5419.00
496.25	5379.00
496.71	5484.00
497.17	5608.00
497.63	5527.00
498.09	5436.00
498.56	5538.00
499.02	5552.00
499.48	5797.00
499.94	5670.00
500.40	5700.00
500.87	5728.00
501.33	5722.00
501.79	5880.00
502.25	5982.00
502.71	6388.00
503.17	6126.00
503.64	6121.00
504.10	6242.00
504.56	6464.00
505.02	6541.00
505.48	6623.00
505.94	6726.00
506.40	6810.00
506.87	6854.00
507.33	6960.00
507.79	7043.00
508.25	7197.00
508.71	7320.00
509.17	7564.00
509.63	7516.00
510.10	7720.00
510.56	7856.00
511.02	8228.00
511.48	8463.00
511.94	8377.00
512.40	8314.00
512.86	8598.00
513.32	8706.00
513.78	8792.00
514.25	9107.00
514.71	10056.00
515.17	9479.00
515.63	9620.00
516.09	9596.00
516.55	9262.00
517.01	9660.00
517.47	10060.00
517.93	10252.00
518.39	10600.00
518.85	11014.00
519.32	11384.00
519.78	11677.00
520.24	11840.00
520.70	12279.00
521.16	12662.00
521.62	12926.00
522.08	13066.00
522.54	13060.00
523.00	13528.00
523.46	13860.00
523.92	14334.00
524.38	14692.00
524.84	14604.00
525.30	14827.00
525.76	14706.00
526.22	14264.00
526.68	14322.00
527.14	14912.00
527.60	15590.00
528.06	16035.00
528.52	16440.00
528.98	16775.00
529.44	16598.00
529.90	16715.00
530.36	17262.00
530.82	17526.00
531.28	17617.00
531.74	17458.00
532.20	16990.00
532.66	17144.00
533.12	17458.00
533.58	17734.00
534.04	17756.00
534.50	18042.00
534.96	18408.00
535.42	18873.00
535.88	18706.00
536.34	18302.00
536.80	18180.00
537.26	18720.00
537.72	18906.00
538.18	18778.00
538.64	18990.00
539.10	18732.00
539.56	18702.00
540.02	18320.00
540.48	18219.00
540.94	18732.00
541.40	19068.00
541.86	19098.00
542.32	19201.00
542.78	19128.00
543.24	19286.00
543.69	19474.00
544.15	19816.00
544.61	19614.00
545.07	19690.00
545.53	19865.00
545.99	19810.00
546.45	19940.00
546.91	20004.00
547.37	19578.00
547.83	19786.00
548.29	20100.00
548.74	20302.00
549.20	20270.00
549.66	20590.00
550.12	20282.00
550.58	20290.00
551.04	20414.00
551.50	20574.00
551.96	20654.00
552.42	20406.00
552.87	20352.00
553.33	20610.00
553.79	20714.00
554.25	20726.00
554.71	20895.00
555.17	20796.00
555.63	20666.00
556.08	20500.00
556.54	20373.00
557.00	20070.00
557.46	20268.00
557.92	20147.00
558.38	19678.00
558.83	19420.00
559.29	19546.00
559.75	19794.00
560.21	19818.00
560.67	20052.00
561.13	19867.00
561.58	19452.00
562.04	19452.00
562.50	19408.00
562.96	19652.00
563.42	19392.00
563.87	19109.00
564.33	19203.00
564.79	18952.00
565.25	18618.00
565.71	18363.00
566.16	18563.00
566.62	18416.00
567.08	18532.00
567.54	18388.00
568.00	17936.00
568.45	17676.00
568.91	17617.00
569.37	17528.00
569.83	17370.00
570.28	16931.00
570.74	16564.00
571.20	16740.00
571.66	16930.00
572.11	16968.00
572.57	16786.00
573.03	16551.00
573.49	16537.00
573.94	16450.00
574.40	16250.00
574.86	15962.00
575.32	15692.00
575.77	15564.00
576.23	15676.00
576.69	15579.00
577.15	15554.00
577.60	15252.00
578.06	15060.00
578.52	14980.00
578.97	14812.00
579.43	14892.00
579.89	14972.00
580.34	14724.00
580.80	14898.00
581.26	14731.00
581.72	14854.00
582.17	14834.00
582.63	14594.00
583.09	14558.00
583.54	14594.00
584.00	14448.00
584.46	14358.00
584.91	14078.00
585.37	14001.00
585.83	13837.00
586.28	13962.00
586.74	13948.00
587.20	13944.00
587.65	13870.00
588.11	13426.00
588.57	12932.00
589.02	12348.00
589.48	12484.00
589.94	12969.00
590.39	13148.00
590.85	13296.00
591.30	13084.00
591.76	13124.00
592.22	13019.00
592.67	13021.00
593.13	12996.00
593.59	13078.00
594.04	12930.00
594.50	12924.00
594.95	12980.00
595.41	12783.00
595.87	13057.00
596.32	12934.00
596.78	13009.00
597.23	12929.00
597.69	12776.00
598.15	12768.00
598.60	12753.00
599.06	12880.00
599.51	12700.00
599.97	12729.00
600.43	12592.00
600.88	12620.00
601.34	12569.00
601.79	12356.00
602.25	12648.00
602.70	12564.00
603.16	12746.00
603.61	12584.00
604.07	12586.00
604.53	12559.00
604.98	12444.00
605.44	12502.00
605.89	12338.00
606.35	12234.00
606.80	12289.00
607.26	12142.00
607.71	12059.00
608.17	11982.00
608.62	11933.00
609.08	11888.00
609.53	11729.00
609.99	11481.00
610.44	11526.00
610.90	11544.00
611.35	11476.00
611.81	11584.00
612.26	11320.00
612.72	11229.00
613.17	11336.00
613.63	10931.00
614.08	10975.00
614.54	10930.00
614.99	10936.00
615.45	10798.00
615.90	10636.00
616.36	10392.00
616.81	10513.00
617.27	10624.00
617.72	10756.00
618.18	10604.00
618.63	10538.00
619.09	10572.00
619.54	10692.00
619.99	10552.00
620.45	10634.00
620.90	10524.00
621.36	10326.00
621.81	10401.00
622.27	10336.00
622.72	10376.00
623.18	10258.00
623.63	10094.00
624.08	10189.00
624.54	9988.00
624.99	10110.00
625.45	10001.00
625.90	10024.00
626.35	10215.00
626.81	10192.00
627.26	10048.00
627.72	9939.00
628.17	9945.00
628.62	9964.00
629.08	10052.00
629.53	9922.00
629.99	9924.00
630.44	10070.00
630.89	10010.00
631.35	9879.00
631.80	9934.00
632.26	10040.00
632.71	9948.00
633.16	10013.00
633.62	9874.00
634.07	9842.00
634.52	9898.00
634.98	9856.00
635.43	9854.00
635.88	9663.00
636.34	9641.00
636.79	9690.00
637.24	9652.00
637.70	9661.00
638.15	9600.00
638.60	9426.00
639.06	9328.00
639.51	9096.00
639.96	9082.00
640.42	9044.00
640.87	8958.00
641.32	8798.00
641.78	8782.00
642.23	8776.00
642.68	8562.00
643.14	8534.00
643.59	8400.00
644.04	8404.00
644.49	8219.00
644.95	8220.00
645.40	8094.00
645.85	7978.00
646.31	7901.00
646.76	7892.00
647.21	7756.00
647.66	7734.00
648.12	7648.00
648.57	7542.00
649.02	7555.00
649.47	7224.00
649.93	7591.00
650.38	7442.00
650.83	7334.00
651.28	7322.00
651.74	7198.00
652.19	7168.00
652.64	7246.00
653.09	7230.00
653.55	7284.00
654.00	7197.00
654.45	7102.00
654.90	7028.00
655.35	6836.00
655.81	6622.00
656.26	6330.00
656.71	6544.00
657.16	6706.00
657.62	6799.00
658.07	6730.00
658.52	6698.00
658.97	6655.00
659.42	6833.00
659.88	6566.00
660.33	6596.00
660.78	6475.00
661.23	6461.00
661.68	6368.00
662.13	6373.00
662.59	6234.00
663.04	6266.00
663.49	6132.00
663.94	6052.00
664.39	6008.00
664.84	5950.00
665.30	6026.00
665.75	5914.00
666.20	5840.00
666.65	5791.00
667.10	5890.00
667.55	5854.00
668.00	5636.00
668.46	5724.00
668.91	5594.00
669.36	5712.00
669.81	5519.00
670.26	5512.00
670.71	5630.00
671.16	5508.00
671.61	5517.00
672.06	5570.00
672.52	5478.00
672.97	5498.00
673.42	5502.00
673.87	5624.00
674.32	5384.00
674.77	5414.00
675.22	5299.00
675.67	5360.00
676.12	5403.00
676.57	5352.00
677.02	5332.00
677.47	5337.00
677.93	5533.00
678.38	5396.00
678.83	5375.00
679.28	5417.00
679.73	5416.00
680.18	5420.00
680.63	5440.00
681.08	5388.00
681.53	5424.00
681.98	5530.00
682.43	5538.00
682.88	5662.00
683.33	5730.00
683.78	5630.00
684.23	5872.00
684.68	5805.00
685.13	6040.00
685.58	6059.00
686.03	5986.00
686.48	5872.00
686.93	5817.00
687.38	5886.00
687.83	6254.00
688.28	6575.00
688.73	6844.00
689.18	6945.00
689.63	7094.00
690.08	7494.00
690.53	7834.00
690.98	8117.00
691.43	8504.00
691.88	8912.00
692.33	9369.00
692.78	9846.00
693.23	10286.00
693.68	10676.00
694.13	10994.00
694.58	11682.00
695.03	12463.00
695.48	12766.00
695.93	13548.00
696.38	14482.00
696.83	14970.00
697.28	15472.00
697.72	15958.00
698.17	16466.00
698.62	17118.00
699.07	17660.00
699.52	18128.00
699.97	18833.00
700.42	19440.00
700.87	20141.00
701.32	20678.00
701.77	21165.00
702.22	21716.00
702.67	22342.00
703.11	23267.00
703.56	23748.00
704.01	24696.00
704.46	25446.00
704.91	26164.00
705.36	26542.00
705.81	26903.00
706.26	27354.00
706.70	27913.00
707.15	28528.00
707.60	29170.00
708.05	29818.00
708.50	30470.00
708.95	30776.00
709.40	31412.00
709.84	31984.00
710.29	32403.00
710.74	32756.00
711.19	33116.00
711.64	33662.00
712.09	34218.00
712.53	34614.00
712.98	35092.00
713.43	35646.00
713.88	35996.00
714.33	36094.00
714.78	36022.00
715.22	36382.00
715.67	36854.00
716.12	36409.00
716.57	35293.00
717.02	33948.00
717.46	33229.00
717.91	33064.00
718.36	32668.00
718.81	32404.00
719.26	32702.00
719.70	33120.00
720.15	34024.00
720.60	35552.00
721.05	37944.00
721.49	39572.00
721.94	40198.00
722.39	40379.00
722.84	39420.00
723.28	37998.00
723.73	37732.00
724.18	37970.00
724.63	38870.00
725.07	39082.00
725.52	39663.00
725.97	40155.00
726.42	40880.00
726.86	41452.00
727.31	40705.00
727.76	41202.00
728.21	42196.00
728.65	42092.00
729.10	41988.00
729.55	43072.00
729.99	43868.00
730.44	44380.00
730.89	44710.00
731.33	45561.00
731.78	46638.00
732.23	47901.00
732.68	48574.00
733.12	49296.00
733.57	50280.00
734.02	51000.00
734.46	51526.00
734.91	51330.00
735.36	51967.00
735.80	52292.00
736.25	52476.00
736.70	52780.00
737.14	53578.00
737.59	53985.00
738.04	53756.00
738.48	53508.00
738.93	53408.00
739.37	54066.00
739.82	55007.00
740.27	55322.00
740.71	55052.00
741.16	55370.00
741.61	55688.00
742.05	55668.00
742.50	56092.00
742.94	56524.00
743.39	56849.00
743.84	56834.00
744.28	56867.00
744.73	56942.00
745.18	57470.00
745.62	57908.00
746.07	57948.00
746.51	57770.00
746.96	57862.00
747.40	57588.00
747.85	57420.00
748.30	57337.00
748.74	57312.00
749.19	57136.00
749.63	57444.00
750.08	57648.00
750.52	57568.00
750.97	57428.00
751.42	57587.00
751.86	57776.00
752.31	57328.00
752.75	57229.00
753.20	57142.00
753.64	57372.00
754.09	57554.00
754.53	57771.00
754.98	57442.00
755.42	57482.00
755.87	57290.00
756.31	56956.00
756.76	56554.00
757.20	56247.00
757.65	55794.00
758.09	54964.00
758.54	52768.00
758.98	46612.00
759.43	36801.00
759.87	26364.00
760.32	20171.00
760.76	20246.00
761.21	25196.00
761.65	30341.00
762.10	31758.00
762.54	30134.00
762.99	28546.00
763.43	29400.00
763.88	31378.00
764.32	34290.00
764.77	37160.00
765.21	40102.00
765.66	42328.00
766.10	44578.00
766.54	47000.00
766.99	48997.00
767.43	50621.00
767.88	51854.00
768.32	52974.00
768.77	53340.00
769.21	54218.00
769.66	54920.00
770.10	55479.00
770.54	55934.00
770.99	55994.00
771.43	55988.00
771.88	55676.00
772.32	55608.00
772.76	55764.00
773.21	55644.00
773.65	55328.00
774.10	54928.00
774.54	54940.00
774.98	55056.00
775.43	55668.00
775.87	56218.00
776.31	56498.00
776.76	56486.00
777.20	56199.00
777.65	55414.00
778.09	55487.00
778.53	55316.00
778.98	54966.00
779.42	54842.00
779.86	54921.00
780.31	54772.00
780.75	55055.00
781.19	55242.00
781.64	55496.00
782.08	55570.00
782.52	55390.00
782.97	54782.00
783.41	54316.00
783.85	54145.00
784.30	53915.00
784.74	53578.00
785.18	53458.00
785.63	53272.00
786.07	53242.00
786.51	53584.00
786.95	53816.00
787.40	53340.00
787.84	53010.00
788.28	52849.00
788.73	52736.00
789.17	51928.00
789.61	51614.00
790.05	51284.00
790.50	51028.00
790.94	50694.00
791.38	50876.00
791.82	50829.00
792.27	50984.00
792.71	51164.00
793.15	51385.00
793.59	51180.00
794.04	50762.00
794.48	50532.00
794.92	50096.00
795.36	49856.00
795.81	49364.00
796.25	49270.00
796.69	49424.00
797.13	49896.00
797.57	50318.00
798.02	50758.00
798.46	50660.00
798.90	50716.00
799.34	50154.00
799.79	49762.00
800.23	48842.00
800.67	48575.00
801.11	48438.00
801.55	48169.00
801.99	47870.00
802.44	48137.00
802.88	48346.00
803.32	48854.00
803.76	49049.00
804.20	49032.00
804.64	49094.00
805.09	49201.00
805.53	49202.00
805.97	48786.00
806.41	47986.00
806.85	47574.00
807.29	46982.00
807.74	46916.00
808.18	46861.00
808.62	46770.00
809.06	46704.00
809.50	46958.00
809.94	47098.00
810.38	47000.00
810.82	47170.00
811.27	46800.00
811.71	45788.00
812.15	45278.00
812.59	43821.00
813.03	43048.00
813.47	41294.00
813.91	40548.00
814.35	39678.00
814.79	39366.00
815.23	39088.00
815.67	38544.00
816.12	38762.00
816.56	38770.00
817.00	38900.00
817.44	39602.00
817.88	39436.00
818.32	38717.00
818.76	39158.00
819.20	38960.00
819.64	39184.00
820.08	39760.00
820.52	40886.00
820.96	41340.00
821.40	40456.00
821.84	39240.00
822.28	37562.00
822.72	37201.00
823.16	37072.00
823.60	39190.00
824.04	41354.00
824.48	41958.00
824.92	42246.00
825.36	41994.00
825.80	41308.00
826.24	40962.00
826.68	40568.00
827.12	40514.00
827.56	39878.00
828.00	39646.00
828.44	40014.00
828.88	40530.00
829.32	40972.00
829.76	41200.00
830.20	41912.00
830.64	41040.00
831.08	40990.00
831.52	40540.00
831.96	39908.00
832.40	39353.00
832.84	39840.00
833.28	40394.00
833.72	40634.00
834.16	41536.00
834.60	42907.00
835.04	43282.00
835.48	43676.00
835.91	43732.00
836.35	43486.00
836.79	43203.00
837.23	42928.00
837.67	42128.00
838.11	41948.00
838.55	42176.00
838.99	42132.00
839.43	42412.00
839.87	42926.00
840.30	43410.00
840.74	43976.00
841.18	44569.00
841.62	44700.00
842.06	44454.00
842.50	44588.00
842.94	44062.00
843.38	43174.00
843.81	42848.00
844.25	42178.00
844.69	42070.00
845.13	41730.00
845.57	41806.00
846.01	42117.00
846.45	42460.00
846.88	42872.00
847.32	43484.00
847.76	43927.00
848.20	44026.00
848.64	43580.00
849.08	42972.00
849.51	42671.00
849.95	41774.00
850.39	41985.00
850.83	42478.00
851.27	42298.00
851.70	41514.00
852.14	41155.00
852.58	40363.00
853.02	38837.00
853.46	37908.00
853.89	37982.00
854.33	37752.00
854.77	39866.00
855.21	42070.00
855.65	43252.00
856.08	43973.00
856.52	44060.00
856.96	43700.00
857.40	42810.00
857.83	42136.00
858.27	41408.00
858.71	40617.00
859.15	40595.00
859.58	40788.00
860.02	41204.00
860.46	41956.00
860.89	42598.00
861.33	42848.00
861.77	43410.00
862.21	43746.00
862.64	43846.00
863.08	43712.00
863.52	43212.00
863.95	42590.00
864.39	41776.00
864.83	40077.00
865.27	38386.00
865.70	38178.00
866.14	37077.00
866.58	37370.00
867.01	39356.00
867.45	40655.00
867.89	41266.00
868.32	42481.00
868.76	42926.00
869.20	42948.00
869.63	43042.00
870.07	42570.00
870.51	41651.00
870.94	40844.00
871.38	39924.00
871.82	39337.00
872.25	38888.00
872.69	38600.00
873.13	39014.00
873.56	39510.00
874.00	39835.00
874.43	40490.00
874.87	41162.00
875.31	41634.00
875.74	41892.00
876.18	42259.00
876.61	42102.00
877.05	41800.00
877.49	41102.00
877.92	40714.00
878.36	40036.00
878.79	39128.00
879.23	38340.00
879.67	37848.00
880.10	37978.00
880.54	37618.00
880.97	38170.00
881.41	39468.00
881.84	40407.00
882.28	40948.00
882.72	41806.00
883.15	42232.00
883.59	42376.00
884.02	42332.00
884.46	41752.00
884.89	41344.00
885.33	40284.00
885.76	39402.00
886.20	38476.00
886.63	37962.00
887.07	37720.00
887.50	37720.00
887.94	37900.00
888.37	38109.00
888.81	38598.00
889.24	39047.00
889.68	39476.00
890.11	39924.00
890.55	40266.00
890.98	40699.00
891.42	40758.00
891.85	40432.00
892.29	40160.00
892.72	38858.00
893.16	37976.00
893.59	37160.00
894.03	35984.00
894.46	34606.00
894.90	33440.00
895.33	32002.00
895.77	32084.00
896.20	31805.00
896.63	32130.00
897.07	31812.00
897.50	31480.00
897.94	32240.00
898.37	33282.00
898.81	31106.00
899.24	31514.00
899.68	32968.00
900.11	32142.00
900.54	31450.00
900.98	30902.00
901.41	30842.00
901.85	31028.00
902.28	31304.00
902.71	31580.00
903.15	32468.00
903.58	33614.00
904.02	33462.00
904.45	33454.00
904.88	33114.00
905.32	33126.00
905.75	32643.00
906.18	31824.00
906.62	31924.00
907.05	31376.00
907.48	31354.00
907.92	31104.00
908.35	31312.00
908.79	30354.00
909.22	30394.00
909.65	30194.00
910.09	30108.00
910.52	29237.00
910.95	29738.00
911.38	29577.00
911.82	28530.00
912.25	29386.00
912.68	29852.00
913.12	29600.00
913.55	29672.00
913.98	30902.00
914.42	32202.00
914.85	32380.00
915.28	30760.00
915.72	30612.00
916.15	30406.00
916.58	30443.00
917.01	29436.00
917.45	28672.00
917.88	29501.00
918.31	29896.00
918.74	31047.00
919.18	31119.00
919.61	31038.00
920.04	31882.00
920.47	32068.00
920.91	32182.00
921.34	32178.00
921.77	32478.00
922.20	33072.00
922.64	32936.00
923.07	32646.00
923.50	32298.00
923.93	31930.00
924.37	31560.00
924.80	31021.00
925.23	30705.00
925.66	29522.00
926.09	28264.00
926.53	27348.00
926.96	26425.00
927.39	25340.00
927.82	23961.00
928.25	23004.00
928.69	22459.00
929.12	22136.00
929.55	21092.00
929.98	20350.00
930.41	18916.00
930.84	18112.00
931.28	16744.00
931.71	15470.00
932.14	14063.00
932.57	13580.00
933.00	12938.00
933.43	12392.00
933.86	11475.00
934.30	11219.00
934.73	12698.00
935.16	11731.00
935.59	11193.00
936.02	11806.00
936.45	11514.00
936.88	11728.00
937.31	12878.00
937.75	13446.00
938.18	14132.00
938.61	14787.00
939.04	15544.00
939.47	14964.00
939.90	14113.00
940.33	13548.00
940.76	12632.00
941.19	12092.00
941.62	11809.00
942.05	11594.00
942.48	10304.00
942.91	10586.00
943.35	11160.00
943.78	10252.00
944.21	10332.00
944.64	11265.00
945.07	11456.00
945.50	11210.00
945.93	11510.00
946.36	11988.00
946.79	12486.00
947.22	13092.00
947.65	12556.00
948.08	12172.00
948.51	13318.00
948.94	13496.00
949.37	12778.00
949.80	12122.00
950.23	12664.00
950.66	13288.00
951.09	12925.00
951.52	12362.00
951.95	12544.00
952.38	12988.00
952.81	13836.00
953.24	14520.00
953.67	14760.00
954.10	14622.00
954.53	15246.00
954.96	15000.00
955.39	15779.00
955.82	16444.00
956.25	15874.00
956.68	16374.00
957.11	16760.00
957.53	15922.00
957.96	16057.00
958.39	15536.00
958.82	14920.00
959.25	15478.00
959.68	16242.00
960.11	16418.00
960.54	16696.00
960.97	17642.00
961.40	18204.00
961.83	17712.00
962.26	18266.00
962.68	19822.00
963.11	19889.00
963.54	20140.00
963.97	20282.00
964.40	20304.00
964.83	21006.00
965.26	21172.00
965.69	20910.00
966.11	20656.00
966.54	20976.00
966.97	21854.00
967.40	21838.00
967.83	21870.00
968.26	22049.00
968.69	22088.00
969.11	22092.00
969.54	21952.00
969.97	22246.00
970.40	22560.00
970.83	22540.00
971.26	22864.00
971.68	22716.00
972.11	23012.00
972.54	23524.00
972.97	23161.00
973.40	22960.00
973.82	22846.00
974.25	22782.00
974.68	22640.00
975.11	22296.00
975.54	21836.00
975.96	21434.00
976.39	21614.00
976.82	21739.00
977.25	21163.00
977.67	21288.00
978.10	21452.00
978.53	21610.00
978.96	22241.00
979.38	22556.00
979.81	22982.00
980.24	23654.00
980.67	24072.00
981.09	24366.00
981.52	24591.00
981.95	24628.00
982.38	24804.00
982.80	24924.00
983.23	25236.00
983.66	25516.00
984.08	25134.00
984.51	24962.00
984.94	24750.00
985.37	24442.00
985.79	23956.00
986.22	23528.00
986.65	23114.00
987.07	22818.00
987.50	22892.00
987.93	22870.00
988.35	22886.00
988.78	23120.00
989.21	23164.00
989.63	23662.00
990.06	24134.00
990.49	24307.00
990.91	24726.00
991.34	24985.00
991.77	25112.00
992.19	25006.00
992.62	24916.00
993.05	24834.00
993.47	24558.00
993.90	24341.00
994.32	23870.00
994.75	23468.00
995.18	23182.00
995.60	22750.00
996.03	22420.00
996.45	22328.00
996.88	22126.00
997.31	22045.00
997.73	21878.00
998.16	22025.00
998.58	22140.00
999.01	22271.00
999.44	22493.00
999.86	22856.00
1000.29	22902.00
1000.71	23114.00
1001.14	23200.00
1001.56	23233.00
1001.99	23030.00
1002.41	22680.00
1002.84	22402.00
1003.27	21870.00
1003.69	21520.00
1004.12	20942.00
1004.54	20766.00
1004.97	20239.00
1005.39	19926.00
1005.82	20028.00
1006.24	19745.00
1006.67	19696.00
1007.09	19704.00
1007.52	19530.00
1007.94	19585.00
1008.37	19736.00
1008.79	19872.00
1009.22	19776.00
1009.64	19826.00
1010.07	20034.00
1010.49	20074.00
1010.92	20179.00
1011.34	20110.00
1011.77	19966.00
1012.19	20076.00
1012.62	19745.00
1013.04	19616.00
1013.46	19234.00
1013.89	18830.00
1014.31	18512.00
1014.74	18026.00
1015.16	17786.00
1015.59	17856.00
1016.01	17664.00
1016.44	17866.00
1016.86	19022.00
1017.28	17990.00
1017.71	18040.00
1018.13	18370.00
1018.56	18450.00
1018.98	18756.00
1019.40	18648.00
1019.83	18893.00
1020.25	18966.00
1020.68	18918.00
1021.10	19168.00
1021.52	19306.00
1021.95	19684.00
1022.37	19453.00
1022.79	19322.00
1023.22	19201.00
1023.64	19115.00
1024.07	18830.00
1024.49	18561.00
1024.91	18266.00
1025.34	18046.00
1025.76	18016.00
1026.18	17638.00
1026.61	17573.00
1027.03	17476.00
1027.45	17571.00
1027.88	17588.00
1028.30	17690.00
1028.72	17806.00
1029.15	17768.00
1029.57	17878.00
1029.99	18093.00
1030.41	17976.00
1030.84	17992.00
1031.26	17876.00
1031.68	17626.00
1032.11	17608.00
1032.53	17450.00
1032.95	17178.00
1033.37	16942.00
1033.80	16758.00
1034.22	16360.00
1034.64	16314.00
1035.06	15929.00
1035.49	15759.00
1035.91	15562.00
1036.33	15216.00
1036.75	15254.00
1037.18	15080.00
1037.60	15131.00
1038.02	15000.00
1038.44	15124.00
1038.87	15023.00
1039.29	15198.00
1039.71	15150.00
1040.13	15176.00
1040.55	15180.00
1040.98	15248.00
1041.40	15046.00
1041.82	15030.00
1042.24	14778.00
1042.66	14576.00
1043.09	14507.00
1043.51	14242.00
1043.93	13964.00
1044.35	13808.00
1044.77	13556.00
1045.20	13440.00
1045.62	13252.00
1046.04	13108.00
1046.46	12969.00
1046.88	12682.00
1047.30	12670.00
1047.72	12654.00
1048.15	12574.00
1048.57	12531.00
1048.99	12427.00
1049.41	12410.00
1049.83	12322.00
1050.25	12270.00
1050.67	12228.00
1051.09	12158.00
1051.52	12209.00
1051.94	12002.00
1052.36	12064.00
1052.78	12010.00
1053.20	11872.00
1053.62	11800.00
1054.04	11662.00
1054.46	11652.00
1054.88	11588.00
1055.30	11482.00
1055.72	11238.00
1056.14	11102.00
1056.57	11170.00
1056.99	10778.00
1057.41	10678.00
1057.83	10584.00
1058.25	10360.00
1058.67	10270.00
1059.09	10200.00
1059.51	10036.00
1059.93	10086.00
1060.35	9800.00
1060.77	9999.00
1061.19	9896.00
1061.61	9812.00
1062.03	9681.00
1062.45	9562.00
1062.87	9706.00
1063.29	9670.00
1063.71	9568.00
1064.13	9440.00
1064.55	9428.00
1064.97	9442.00
1065.39	9409.00
1065.81	9268.00
1066.23	9171.00
1066.65	9092.00
1067.07	9202.00
1067.49	8926.00
1067.91	8837.00
1068.33	8664.00
1068.75	8680.00
1069.17	8652.00
1069.59	8617.00
1070.00	8432.00
1070.42	8396.00
1070.84	8284.00
1071.26	8104.00
1071.68	8106.00
1072.10	8280.00
1072.52	8151.00
1072.94	8094.00
1073.36	7992.00
1073.78	7961.00
1074.20	7994.00
1074.62	7960.00
1075.03	7932.00
1075.45	7900.00
1075.87	7940.00
1076.29	7860.00
1076.71	7962.00
1077.13	7921.00
1077.55	7622.00
1077.97	7668.00
1078.38	7486.00
1078.80	7526.00
1079.22	7484.00
1079.64	7318.00
1080.06	7323.00
1080.48	7224.00
1080.89	7169.00
1081.31	7042.00
1081.73	7016.00
1082.15	6984.00
1082.57	6918.00
1082.99	6866.00
1083.40	6770.00
1083.82	6866.00
1084.24	6760.00
1084.66	6730.00
1085.08	6718.00
1085.49	6620.00
1085.91	6723.00
1086.33	8200.00
1086.75	6662.00
1087.17	6642.00
1087.58	6620.00
1088.00	6576.00
1088.42	6572.00
1088.84	6408.00
1089.25	6382.00
1089.67	6412.00
1090.09	6273.00
1090.51	6216.00
1090.92	6228.00
1091.34	6076.00
1091.76	6002.00
1092.18	5964.00
1092.59	5886.00
1093.01	5860.00
1093.43	5802.00
1093.84	5720.00
1094.26	5754.00
1094.68	5728.00
1095.10	5592.00
1095.51	5636.00
1095.93	5648.00
1096.35	5620.00
1096.76	5598.00
1097.18	5634.00
1097.60	5472.00
1098.01	5466.00
1098.43	5438.00
1098.85	5384.00
1099.26	5352.00
1099.68	5290.00
1100.10	5212.00
1100.51	5116.00
1100.93	5094.00
1101.35	5120.00
1101.76	5058.00
1102.18	5628.00
1102.60	5010.00
1103.01	4838.00
1103.43	4950.00
1103.84	4862.00
1104.26	4797.00
1104.68	4866.00
1105.09	4763.00
1105.51	4764.00
1105.92	4836.00
1106.34	4696.00
1106.76	4700.00
1107.17	4671.00
1107.59	4624.00
1108.00	4500.00
1108.42	4495.00
1108.83	4396.00
1109.25	4448.00
1109.67	4259.00
1110.08	4345.00
1110.50	4309.00
1110.91	4326.00
1111.33	4225.00
1111.74	4220.00
1112.16	4206.00
1112.57	4146.00
1112.99	4040.00
1113.41	4045.00
1113.82	3984.00
1114.24	3926.00
1114.65	3876.00
1115.07	3710.00
1115.48	3608.00
1115.90	2188.00
1116.31	2218.00
1116.73	2222.00
1117.14	2221.00
>>>>>End Processed Spectral Data<<<<<
