SpectraSuite Data File
++++++++++++++++++++++++++++++++++++
Date: Tue May 29 13:10:52 EEST 2018
User: CanSEE
Dark Spectrum Present: No
Reference Spectrum Present: No
Number of Sampled Component Spectra: 1
Spectrometers: MAYP11278
Integration Time (usec): 230000 (MAYP11278)
Spectra Averaged: 1 (MAYP11278)
Boxcar Smoothing: 0 (MAYP11278)
Correct for Electrical Dark: No (MAYP11278)
Strobe/Lamp Enabled: No (MAYP11278)
Correct for Detector Non-linearity: No (MAYP11278)
Correct for Stray Light: No (MAYP11278)
Number of Pixels in Processed Spectrum: 2068
>>>>>Begin Processed Spectral Data<<<<<
187.82	2335.00
188.30	2235.00
188.78	2211.00
189.26	2207.00
189.73	3167.00
190.21	3314.00
190.69	3396.00
191.17	3420.00
191.64	3462.00
192.12	3380.00
192.60	3403.00
193.07	3346.00
193.55	3421.00
194.03	3392.00
194.51	3401.00
194.98	3377.00
195.46	3451.00
195.94	3462.00
196.42	3396.00
196.89	3555.00
197.37	3427.00
197.85	3393.00
198.32	3393.00
198.80	3397.00
199.28	3431.00
199.76	3449.00
200.23	3405.00
200.71	3408.00
201.19	3461.00
201.66	3415.00
202.14	3442.00
202.62	3338.00
203.09	3425.00
203.57	3388.00
204.05	3476.00
204.53	3486.00
205.00	3415.00
205.48	3389.00
205.96	3490.00
206.43	3431.00
206.91	3444.00
207.39	3534.00
207.86	3449.00
208.34	3447.00
208.82	3436.00
209.29	3488.00
209.77	3459.00
210.25	3460.00
210.72	3452.00
211.20	3452.00
211.68	3456.00
212.15	3441.00
212.63	3522.00
213.11	3441.00
213.58	3434.00
214.06	3510.00
214.53	3463.00
215.01	3493.00
215.49	3459.00
215.96	3458.00
216.44	3449.00
216.92	3468.00
217.39	3437.00
217.87	3434.00
218.35	3489.00
218.82	3376.00
219.30	3429.00
219.77	3389.00
220.25	3425.00
220.73	3572.00
221.20	3447.00
221.68	3453.00
222.15	3427.00
222.63	3457.00
223.11	3426.00
223.58	3490.00
224.06	3431.00
224.53	3406.00
225.01	3426.00
225.49	3426.00
225.96	3445.00
226.44	3428.00
226.91	3459.00
227.39	3479.00
227.87	3446.00
228.34	3505.00
228.82	3483.00
229.29	3481.00
229.77	3423.00
230.24	3452.00
230.72	3486.00
231.20	3497.00
231.67	3474.00
232.15	3487.00
232.62	3415.00
233.10	3461.00
233.57	3479.00
234.05	3573.00
234.53	3503.00
235.00	3417.00
235.48	3435.00
235.95	3436.00
236.43	3445.00
236.90	3534.00
237.38	3449.00
237.85	3463.00
238.33	3417.00
238.80	3456.00
239.28	3399.00
239.75	3439.00
240.23	3459.00
240.71	3485.00
241.18	3425.00
241.66	3409.00
242.13	3487.00
242.61	3502.00
243.08	3372.00
243.56	3436.00
244.03	3484.00
244.51	3499.00
244.98	3397.00
245.46	3493.00
245.93	5263.00
246.41	3376.00
246.88	3466.00
247.36	3439.00
247.83	3491.00
248.31	3479.00
248.78	3400.00
249.26	3445.00
249.73	3494.00
250.21	3439.00
250.68	3497.00
251.16	3462.00
251.63	3536.00
252.10	3499.00
252.58	3463.00
253.05	3517.00
253.53	3479.00
254.00	3446.00
254.48	3488.00
254.95	3473.00
255.43	3509.00
255.90	3475.00
256.38	3471.00
256.85	3474.00
257.33	3505.00
257.80	3600.00
258.27	3457.00
258.75	3426.00
259.22	3419.00
259.70	3463.00
260.17	3532.00
260.65	3448.00
261.12	3435.00
261.59	3521.00
262.07	3445.00
262.54	3486.00
263.02	3472.00
263.49	3454.00
263.97	3526.00
264.44	3552.00
264.91	3436.00
265.39	3471.00
265.86	3484.00
266.34	3499.00
266.81	3465.00
267.28	3485.00
267.76	3479.00
268.23	3492.00
268.71	3357.00
269.18	3401.00
269.65	3413.00
270.13	3475.00
270.60	3505.00
271.08	3434.00
271.55	3439.00
272.02	3381.00
272.50	3451.00
272.97	3405.00
273.44	3469.00
273.92	3609.00
274.39	3449.00
274.87	3501.00
275.34	3453.00
275.81	3445.00
276.29	3444.00
276.76	3450.00
277.23	3360.00
277.71	3386.00
278.18	3350.00
278.65	3499.00
279.13	3402.00
279.60	3417.00
280.07	3701.00
280.55	3664.00
281.02	3744.00
281.50	3501.00
281.97	3569.00
282.44	3495.00
282.91	3490.00
283.39	3508.00
283.86	3459.00
284.33	3455.00
284.81	3480.00
285.28	3468.00
285.75	3522.00
286.23	3474.00
286.70	3508.00
287.17	3507.00
287.65	3567.00
288.12	3449.00
288.59	3495.00
289.07	3395.00
289.54	3570.00
290.01	3463.00
290.48	3531.00
290.96	3455.00
291.43	3513.00
291.90	3577.00
292.38	3457.00
292.85	3520.00
293.32	3437.00
293.79	3515.00
294.27	3491.00
294.74	3463.00
295.21	3465.00
295.69	3463.00
296.16	3553.00
296.63	3539.00
297.10	3529.00
297.58	3492.00
298.05	3501.00
298.52	3503.00
298.99	3522.00
299.47	3422.00
299.94	3512.00
300.41	3435.00
300.88	3507.00
301.36	3536.00
301.83	3511.00
302.30	3431.00
302.77	3500.00
303.25	3501.00
303.72	3424.00
304.19	3473.00
304.66	3470.00
305.13	3473.00
305.61	3472.00
306.08	3498.00
306.55	3518.00
307.02	3458.00
307.49	3472.00
307.97	3499.00
308.44	3491.00
308.91	3521.00
309.38	3529.00
309.86	3491.00
310.33	3491.00
310.80	3507.00
311.27	3487.00
311.74	3518.00
312.21	3521.00
312.69	3579.00
313.16	3468.00
313.63	3508.00
314.10	3485.00
314.57	3441.00
315.05	3480.00
315.52	3535.00
315.99	3545.00
316.46	3514.00
316.93	3530.00
317.40	3517.00
317.88	3614.00
318.35	3483.00
318.82	3513.00
319.29	3455.00
319.76	3543.00
320.23	3577.00
320.70	3521.00
321.18	3505.00
321.65	3441.00
322.12	3444.00
322.59	3608.00
323.06	3471.00
323.53	3638.00
324.00	3491.00
324.48	3548.00
324.95	3513.00
325.42	3505.00
325.89	3493.00
326.36	3470.00
326.83	3523.00
327.30	3536.00
327.77	3550.00
328.24	3519.00
328.72	3497.00
329.19	3529.00
329.66	3500.00
330.13	3509.00
330.60	3558.00
331.07	3585.00
331.54	3635.00
332.01	3489.00
332.48	3609.00
332.95	3566.00
333.43	3534.00
333.90	3613.00
334.37	3551.00
334.84	3528.00
335.31	3681.00
335.78	3449.00
336.25	3528.00
336.72	3526.00
337.19	3505.00
337.66	3473.00
338.13	3522.00
338.60	3562.00
339.07	3543.00
339.54	3479.00
340.01	3467.00
340.49	3513.00
340.96	3530.00
341.43	3576.00
341.90	3486.00
342.37	3511.00
342.84	3554.00
343.31	3548.00
343.78	3513.00
344.25	3527.00
344.72	3546.00
345.19	3537.00
345.66	3573.00
346.13	3531.00
346.60	3507.00
347.07	3602.00
347.54	3552.00
348.01	3548.00
348.48	3495.00
348.95	3476.00
349.42	3545.00
349.89	3539.00
350.36	3524.00
350.83	3475.00
351.30	3545.00
351.77	3595.00
352.24	3540.00
352.71	3523.00
353.18	3519.00
353.65	3521.00
354.12	3545.00
354.59	3574.00
355.06	3505.00
355.53	3643.00
356.00	3481.00
356.47	3612.00
356.94	3492.00
357.41	3655.00
357.88	3557.00
358.35	3469.00
358.82	3493.00
359.28	3542.00
359.75	3529.00
360.22	3573.00
360.69	3569.00
361.16	3520.00
361.63	3510.00
362.10	3588.00
362.57	3563.00
363.04	3535.00
363.51	3671.00
363.98	3547.00
364.45	3517.00
364.92	3546.00
365.39	3538.00
365.86	3516.00
366.32	3537.00
366.79	3556.00
367.26	4443.00
367.73	3857.00
368.20	3467.00
368.67	3606.00
369.14	3499.00
369.61	3598.00
370.08	3530.00
370.55	3497.00
371.02	4383.00
371.48	3499.00
371.95	3527.00
372.42	3440.00
372.89	3487.00
373.36	3533.00
373.83	3462.00
374.30	3501.00
374.77	3546.00
375.23	3480.00
375.70	3619.00
376.17	3495.00
376.64	3491.00
377.11	3480.00
377.58	3533.00
378.05	3532.00
378.51	3549.00
378.98	3544.00
379.45	3507.00
379.92	3539.00
380.39	3673.00
380.86	3542.00
381.33	3597.00
381.79	3592.00
382.26	3456.00
382.73	3543.00
383.20	3519.00
383.67	3545.00
384.14	3532.00
384.60	3717.00
385.07	3513.00
385.54	3535.00
386.01	3516.00
386.48	3610.00
386.94	3451.00
387.41	3472.00
387.88	3556.00
388.35	3527.00
388.82	3571.00
389.28	3472.00
389.75	3552.00
390.22	3529.00
390.69	3533.00
391.16	3534.00
391.62	3561.00
392.09	3537.00
392.56	3513.00
393.03	3516.00
393.50	3662.00
393.96	3501.00
394.43	3576.00
394.90	3493.00
395.37	3560.00
395.83	3717.00
396.30	3476.00
396.77	3563.00
397.24	3545.00
397.70	3491.00
398.17	3521.00
398.64	3510.00
399.11	3507.00
399.57	3547.00
400.04	3464.00
400.51	3509.00
400.98	3501.00
401.44	3552.00
401.91	3538.00
402.38	3514.00
402.84	3515.00
403.31	3563.00
403.78	3568.00
404.25	3635.00
404.71	3611.00
405.18	3574.00
405.65	3529.00
406.12	3551.00
406.58	3530.00
407.05	3603.00
407.52	3551.00
407.98	4065.00
408.45	3520.00
408.92	3486.00
409.38	3624.00
409.85	3505.00
410.32	3560.00
410.78	3527.00
411.25	3609.00
411.72	3544.00
412.18	3483.00
412.65	3602.00
413.12	3554.00
413.59	3573.00
414.05	3593.00
414.52	3685.00
414.98	3572.00
415.45	3634.00
415.92	3593.00
416.38	3551.00
416.85	3654.00
417.32	3618.00
417.78	3585.00
418.25	3591.00
418.72	3620.00
419.18	3627.00
419.65	3615.00
420.12	3602.00
420.58	3592.00
421.05	3576.00
421.51	3595.00
421.98	3633.00
422.45	3596.00
422.91	3582.00
423.38	3635.00
423.85	3638.00
424.31	3589.00
424.78	3692.00
425.24	3599.00
425.71	3701.00
426.18	3588.00
426.64	3667.00
427.11	3639.00
427.57	3651.00
428.04	3598.00
428.51	3680.00
428.97	3627.00
429.44	3641.00
429.90	3614.00
430.37	3760.00
430.83	3535.00
431.30	3682.00
431.77	3720.00
432.23	3746.00
432.70	3673.00
433.16	3663.00
433.63	3670.00
434.09	3653.00
434.56	3719.00
435.03	3645.00
435.49	3680.00
435.96	3712.00
436.42	3690.00
436.89	3711.00
437.35	3693.00
437.82	3657.00
438.28	3658.00
438.75	3649.00
439.21	3857.00
439.68	3739.00
440.14	3730.00
440.61	3732.00
441.07	3654.00
441.54	3709.00
442.00	3838.00
442.47	3708.00
442.94	3738.00
443.40	3737.00
443.87	3687.00
444.33	3810.00
444.80	3738.00
445.26	3734.00
445.73	3717.00
446.19	3780.00
446.65	3731.00
447.12	3739.00
447.58	3714.00
448.05	3705.00
448.51	3749.00
448.98	3801.00
449.44	3721.00
449.91	3779.00
450.37	3792.00
450.84	3755.00
451.30	3747.00
451.77	3841.00
452.23	3712.00
452.70	3824.00
453.16	3761.00
453.62	3807.00
454.09	3755.00
454.55	3752.00
455.02	3764.00
455.48	3771.00
455.95	3812.00
456.41	3758.00
456.88	3873.00
457.34	3770.00
457.80	3772.00
458.27	3671.00
458.73	3769.00
459.20	3775.00
459.66	3797.00
460.13	3724.00
460.59	3707.00
461.05	3826.00
461.52	3764.00
461.98	3696.00
462.45	3653.00
462.91	3757.00
463.37	3721.00
463.84	3722.00
464.30	3731.00
464.76	3661.00
465.23	3693.00
465.69	3747.00
466.16	3712.00
466.62	3690.00
467.08	3703.00
467.55	3699.00
468.01	3726.00
468.48	3713.00
468.94	3659.00
469.40	3643.00
469.87	3668.00
470.33	3697.00
470.79	3689.00
471.26	3625.00
471.72	3619.00
472.18	3659.00
472.65	3666.00
473.11	3721.00
473.57	3622.00
474.04	3633.00
474.50	3644.00
474.96	3608.00
475.43	3664.00
475.89	3673.00
476.35	3634.00
476.82	3661.00
477.28	3671.00
477.74	3778.00
478.21	3658.00
478.67	3709.00
479.13	3606.00
479.59	3724.00
480.06	3687.00
480.52	3711.00
480.98	3665.00
481.45	3640.00
481.91	3663.00
482.37	3579.00
482.84	3662.00
483.30	3599.00
483.76	3637.00
484.22	3737.00
484.69	3633.00
485.15	3607.00
485.61	3532.00
486.07	3564.00
486.54	3541.00
487.00	3613.00
487.46	3609.00
487.92	3573.00
488.39	3600.00
488.85	3615.00
489.31	3642.00
489.77	3665.00
490.24	3556.00
490.70	3667.00
491.16	3599.00
491.62	3592.00
492.09	3587.00
492.55	3696.00
493.01	3661.00
493.47	3649.00
493.94	3652.00
494.40	3621.00
494.86	3645.00
495.32	3596.00
495.78	3699.00
496.25	3676.00
496.71	3701.00
497.17	3792.00
497.63	3726.00
498.09	3659.00
498.56	3698.00
499.02	3687.00
499.48	3831.00
499.94	3707.00
500.40	3740.00
500.87	3722.00
501.33	3713.00
501.79	3746.00
502.25	3737.00
502.71	4055.00
503.17	3706.00
503.64	3780.00
504.10	3791.00
504.56	3794.00
505.02	3824.00
505.48	3798.00
505.94	3818.00
506.40	3913.00
506.87	3844.00
507.33	3903.00
507.79	3880.00
508.25	3837.00
508.71	3919.00
509.17	3874.00
509.63	3931.00
510.10	3972.00
510.56	3929.00
511.02	4083.00
511.48	4101.00
511.94	4008.00
512.40	3991.00
512.86	4067.00
513.32	4118.00
513.78	4030.00
514.25	4193.00
514.71	4848.00
515.17	4119.00
515.63	4187.00
516.09	4220.00
516.55	4136.00
517.01	4288.00
517.47	4242.00
517.93	4261.00
518.39	4473.00
518.85	4401.00
519.32	4402.00
519.78	4481.00
520.24	4439.00
520.70	4546.00
521.16	4607.00
521.62	4727.00
522.08	4637.00
522.54	4679.00
523.00	4768.00
523.46	4821.00
523.92	4809.00
524.38	5016.00
524.84	4921.00
525.30	4977.00
525.76	4968.00
526.22	4833.00
526.68	4833.00
527.14	4923.00
527.60	5033.00
528.06	5078.00
528.52	5211.00
528.98	5229.00
529.44	5227.00
529.90	5255.00
530.36	5325.00
530.82	5251.00
531.28	5397.00
531.74	5349.00
532.20	5219.00
532.66	5267.00
533.12	5376.00
533.58	5374.00
534.04	5386.00
534.50	5405.00
534.96	5467.00
535.42	5552.00
535.88	5479.00
536.34	5512.00
536.80	5419.00
537.26	5552.00
537.72	5535.00
538.18	5495.00
538.64	5621.00
539.10	5544.00
539.56	5709.00
540.02	5407.00
540.48	5547.00
540.94	5536.00
541.40	5545.00
541.86	5648.00
542.32	5601.00
542.78	5622.00
543.24	5741.00
543.69	5592.00
544.15	5875.00
544.61	5779.00
545.07	5627.00
545.53	5705.00
545.99	5765.00
546.45	5684.00
546.91	5755.00
547.37	5746.00
547.83	5715.00
548.29	5770.00
548.74	5781.00
549.20	5770.00
549.66	5885.00
550.12	5837.00
550.58	5797.00
551.04	5783.00
551.50	5840.00
551.96	5945.00
552.42	5857.00
552.87	5766.00
553.33	5825.00
553.79	5805.00
554.25	5823.00
554.71	5888.00
555.17	5787.00
555.63	5961.00
556.08	5775.00
556.54	5776.00
557.00	5699.00
557.46	5765.00
557.92	5886.00
558.38	5677.00
558.83	5653.00
559.29	5705.00
559.75	5663.00
560.21	5657.00
560.67	5755.00
561.13	5721.00
561.58	5679.00
562.04	5662.00
562.50	5635.00
562.96	5642.00
563.42	5646.00
563.87	5513.00
564.33	5580.00
564.79	5567.00
565.25	5439.00
565.71	5486.00
566.16	5543.00
566.62	5467.00
567.08	5494.00
567.54	5476.00
568.00	5465.00
568.45	5290.00
568.91	5349.00
569.37	5425.00
569.83	5297.00
570.28	5253.00
570.74	5291.00
571.20	5236.00
571.66	5223.00
572.11	5263.00
572.57	5272.00
573.03	5114.00
573.49	5175.00
573.94	5163.00
574.40	5171.00
574.86	5128.00
575.32	4991.00
575.77	5053.00
576.23	4974.00
576.69	5098.00
577.15	5049.00
577.60	4990.00
578.06	4913.00
578.52	4979.00
578.97	4960.00
579.43	4919.00
579.89	4921.00
580.34	4897.00
580.80	4969.00
581.26	4963.00
581.72	4961.00
582.17	4913.00
582.63	4877.00
583.09	4893.00
583.54	4958.00
584.00	4804.00
584.46	4876.00
584.91	4849.00
585.37	4898.00
585.83	4770.00
586.28	4795.00
586.74	4824.00
587.20	4797.00
587.65	4778.00
588.11	4634.00
588.57	4666.00
589.02	4563.00
589.48	4545.00
589.94	4645.00
590.39	4695.00
590.85	4638.00
591.30	4699.00
591.76	4719.00
592.22	4638.00
592.67	4683.00
593.13	4643.00
593.59	4659.00
594.04	4590.00
594.50	4621.00
594.95	4703.00
595.41	4633.00
595.87	4615.00
596.32	4687.00
596.78	4652.00
597.23	4696.00
597.69	4647.00
598.15	4561.00
598.60	4633.00
599.06	4627.00
599.51	4597.00
599.97	4603.00
600.43	4644.00
600.88	4597.00
601.34	4609.00
601.79	4549.00
602.25	4704.00
602.70	4573.00
603.16	4581.00
603.61	4567.00
604.07	4528.00
604.53	4584.00
604.98	4592.00
605.44	4551.00
605.89	4522.00
606.35	4515.00
606.80	4517.00
607.26	4535.00
607.71	4492.00
608.17	4505.00
608.62	4449.00
609.08	4635.00
609.53	4524.00
609.99	4440.00
610.44	4377.00
610.90	4408.00
611.35	4389.00
611.81	4475.00
612.26	4445.00
612.72	4381.00
613.17	4497.00
613.63	4308.00
614.08	4335.00
614.54	4308.00
614.99	4316.00
615.45	4304.00
615.90	4270.00
616.36	4214.00
616.81	4261.00
617.27	4321.00
617.72	4285.00
618.18	4325.00
618.63	4261.00
619.09	4235.00
619.54	4341.00
619.99	4226.00
620.45	4305.00
620.90	4318.00
621.36	4276.00
621.81	4315.00
622.27	4268.00
622.72	4326.00
623.18	4151.00
623.63	4207.00
624.08	4295.00
624.54	4156.00
624.99	4145.00
625.45	4212.00
625.90	4201.00
626.35	4209.00
626.81	4241.00
627.26	4193.00
627.72	4176.00
628.17	4209.00
628.62	4081.00
629.08	4135.00
629.53	4201.00
629.99	4131.00
630.44	4187.00
630.89	4131.00
631.35	4207.00
631.80	4188.00
632.26	4219.00
632.71	4138.00
633.16	4177.00
633.62	4117.00
634.07	4139.00
634.52	4102.00
634.98	4169.00
635.43	4123.00
635.88	4061.00
636.34	4175.00
636.79	4139.00
637.24	4113.00
637.70	4161.00
638.15	4134.00
638.60	4095.00
639.06	4123.00
639.51	4031.00
639.96	4011.00
640.42	4115.00
640.87	4063.00
641.32	3970.00
641.78	4020.00
642.23	3991.00
642.68	3970.00
643.14	4001.00
643.59	4021.00
644.04	3955.00
644.49	3951.00
644.95	3913.00
645.40	3887.00
645.85	3949.00
646.31	3896.00
646.76	3905.00
647.21	3921.00
647.66	3887.00
648.12	3827.00
648.57	3803.00
649.02	3885.00
649.47	3852.00
649.93	3948.00
650.38	3823.00
650.83	3832.00
651.28	3819.00
651.74	3828.00
652.19	3800.00
652.64	3789.00
653.09	3787.00
653.55	3778.00
654.00	3801.00
654.45	3812.00
654.90	3760.00
655.35	3721.00
655.81	3762.00
656.26	3620.00
656.71	3673.00
657.16	3785.00
657.62	3780.00
658.07	3751.00
658.52	3729.00
658.97	3730.00
659.42	3879.00
659.88	3699.00
660.33	3728.00
660.78	3750.00
661.23	3666.00
661.68	3676.00
662.13	3656.00
662.59	3600.00
663.04	3683.00
663.49	3669.00
663.94	3612.00
664.39	3653.00
664.84	3621.00
665.30	3648.00
665.75	3565.00
666.20	3673.00
666.65	3615.00
667.10	3720.00
667.55	3658.00
668.00	3571.00
668.46	3605.00
668.91	3576.00
669.36	3679.00
669.81	3516.00
670.26	3541.00
670.71	3653.00
671.16	3552.00
671.61	3667.00
672.06	3660.00
672.52	3572.00
672.97	3548.00
673.42	3607.00
673.87	3741.00
674.32	3568.00
674.77	3598.00
675.22	3501.00
675.67	3521.00
676.12	3561.00
676.57	3540.00
677.02	3593.00
677.47	3543.00
677.93	3699.00
678.38	3529.00
678.83	3545.00
679.28	3585.00
679.73	3541.00
680.18	3547.00
680.63	3539.00
681.08	3484.00
681.53	3490.00
681.98	3577.00
682.43	3585.00
682.88	3626.00
683.33	3619.00
683.78	3602.00
684.23	3671.00
684.68	3585.00
685.13	3640.00
685.58	3653.00
686.03	3652.00
686.48	3593.00
686.93	3570.00
687.38	3601.00
687.83	3573.00
688.28	3672.00
688.73	3852.00
689.18	3709.00
689.63	3700.00
690.08	3738.00
690.53	3772.00
690.98	3812.00
691.43	3864.00
691.88	3886.00
692.33	3932.00
692.78	4008.00
693.23	4117.00
693.68	4128.00
694.13	4139.00
694.58	4201.00
695.03	4479.00
695.48	4343.00
695.93	4396.00
696.38	4559.00
696.83	4579.00
697.28	4619.00
697.72	4721.00
698.17	4672.00
698.62	4851.00
699.07	4918.00
699.52	4942.00
699.97	4949.00
700.42	5029.00
700.87	5140.00
701.32	5326.00
701.77	5215.00
702.22	5321.00
702.67	5318.00
703.11	5447.00
703.56	5657.00
704.01	5606.00
704.46	5774.00
704.91	5918.00
705.36	5935.00
705.81	5934.00
706.26	5991.00
706.70	6081.00
707.15	6122.00
707.60	6192.00
708.05	6290.00
708.50	6407.00
708.95	6411.00
709.40	6496.00
709.84	6487.00
710.29	6573.00
710.74	6608.00
711.19	6758.00
711.64	6777.00
712.09	6842.00
712.53	6856.00
712.98	6991.00
713.43	7007.00
713.88	7057.00
714.33	7162.00
714.78	7072.00
715.22	7059.00
715.67	7144.00
716.12	7039.00
716.57	6945.00
717.02	6767.00
717.46	6628.00
717.91	6662.00
718.36	6701.00
718.81	6509.00
719.26	6451.00
719.70	6626.00
720.15	6721.00
720.60	6899.00
721.05	7273.00
721.49	7451.00
721.94	7715.00
722.39	7599.00
722.84	7475.00
723.28	7244.00
723.73	7275.00
724.18	7249.00
724.63	7398.00
725.07	7329.00
725.52	7487.00
725.97	7603.00
726.42	7709.00
726.86	7665.00
727.31	7649.00
727.76	7735.00
728.21	7923.00
728.65	7858.00
729.10	7811.00
729.55	7949.00
729.99	8107.00
730.44	8083.00
730.89	8179.00
731.33	8293.00
731.78	8520.00
732.23	8655.00
732.68	8659.00
733.12	8823.00
733.57	9018.00
734.02	9120.00
734.46	9195.00
734.91	9229.00
735.36	9221.00
735.80	9352.00
736.25	9368.00
736.70	9342.00
737.14	9492.00
737.59	9557.00
738.04	9379.00
738.48	9430.00
738.93	9528.00
739.37	9532.00
739.82	9667.00
740.27	9773.00
740.71	9765.00
741.16	9779.00
741.61	9737.00
742.05	9794.00
742.50	9845.00
742.94	9967.00
743.39	10021.00
743.84	9972.00
744.28	10026.00
744.73	10125.00
745.18	10107.00
745.62	10185.00
746.07	10217.00
746.51	10087.00
746.96	10073.00
747.40	10091.00
747.85	10118.00
748.30	10059.00
748.74	10029.00
749.19	10096.00
749.63	10246.00
750.08	10151.00
750.52	10213.00
750.97	10058.00
751.42	10180.00
751.86	10115.00
752.31	10092.00
752.75	10213.00
753.20	10100.00
753.64	10151.00
754.09	10104.00
754.53	10098.00
754.98	10082.00
755.42	10201.00
755.87	10124.00
756.31	10180.00
756.76	10009.00
757.20	10078.00
757.65	9927.00
758.09	9783.00
758.54	9577.00
758.98	8727.00
759.43	7361.00
759.87	5997.00
760.32	5181.00
760.76	5141.00
761.21	5704.00
761.65	6459.00
762.10	6533.00
762.54	6436.00
762.99	6147.00
763.43	6253.00
763.88	6438.00
764.32	6824.00
764.77	7236.00
765.21	7647.00
765.66	7899.00
766.10	8307.00
766.54	8615.00
766.99	8900.00
767.43	9181.00
767.88	9361.00
768.32	9561.00
768.77	9567.00
769.21	9761.00
769.66	9811.00
770.10	9863.00
770.54	9908.00
770.99	9913.00
771.43	9859.00
771.88	9808.00
772.32	9938.00
772.76	9803.00
773.21	9904.00
773.65	9811.00
774.10	9763.00
774.54	9808.00
774.98	9852.00
775.43	9875.00
775.87	9960.00
776.31	9920.00
776.76	9970.00
777.20	9992.00
777.65	9963.00
778.09	9930.00
778.53	9767.00
778.98	9894.00
779.42	9994.00
779.86	9800.00
780.31	9795.00
780.75	9876.00
781.19	9842.00
781.64	9770.00
782.08	9888.00
782.52	9857.00
782.97	9817.00
783.41	9738.00
783.85	9686.00
784.30	9610.00
784.74	9569.00
785.18	9548.00
785.63	9538.00
786.07	9595.00
786.51	9671.00
786.95	9612.00
787.40	9510.00
787.84	9592.00
788.28	9525.00
788.73	9553.00
789.17	9347.00
789.61	9237.00
790.05	9323.00
790.50	9151.00
790.94	9177.00
791.38	9280.00
791.82	9154.00
792.27	9271.00
792.71	9119.00
793.15	9399.00
793.59	9319.00
794.04	9116.00
794.48	9164.00
794.92	9113.00
795.36	8949.00
795.81	8937.00
796.25	8945.00
796.69	8894.00
797.13	9081.00
797.57	9093.00
798.02	9073.00
798.46	9257.00
798.90	9173.00
799.34	9097.00
799.79	9094.00
800.23	8886.00
800.67	8938.00
801.11	8877.00
801.55	8825.00
801.99	8793.00
802.44	8832.00
802.88	9044.00
803.32	8912.00
803.76	8940.00
804.20	8921.00
804.64	8977.00
805.09	9001.00
805.53	8924.00
805.97	8928.00
806.41	8821.00
806.85	8753.00
807.29	8631.00
807.74	8718.00
808.18	8647.00
808.62	8605.00
809.06	8564.00
809.50	8667.00
809.94	8594.00
810.38	8724.00
810.82	8755.00
811.27	8751.00
811.71	8537.00
812.15	8410.00
812.59	8186.00
813.03	8162.00
813.47	7905.00
813.91	7760.00
814.35	7675.00
814.79	7584.00
815.23	7521.00
815.67	7433.00
816.12	7405.00
816.56	7469.00
817.00	7553.00
817.44	7644.00
817.88	7581.00
818.32	7519.00
818.76	7635.00
819.20	7524.00
819.64	7552.00
820.08	7639.00
820.52	7873.00
820.96	7905.00
821.40	7790.00
821.84	7770.00
822.28	7295.00
822.72	7309.00
823.16	7339.00
823.60	7493.00
824.04	7876.00
824.48	7973.00
824.92	8035.00
825.36	7931.00
825.80	7856.00
826.24	7857.00
826.68	7689.00
827.12	7714.00
827.56	7671.00
828.00	7663.00
828.44	7727.00
828.88	7757.00
829.32	7816.00
829.76	7763.00
830.20	7934.00
830.64	7800.00
831.08	7928.00
831.52	7765.00
831.96	7733.00
832.40	7554.00
832.84	7683.00
833.28	7731.00
833.72	7813.00
834.16	7955.00
834.60	8037.00
835.04	8056.00
835.48	8191.00
835.91	8189.00
836.35	8163.00
836.79	8064.00
837.23	8091.00
837.67	7919.00
838.11	7934.00
838.55	8045.00
838.99	8088.00
839.43	8078.00
839.87	8241.00
840.30	8187.00
840.74	8258.00
841.18	8267.00
841.62	8277.00
842.06	8189.00
842.50	8311.00
842.94	8207.00
843.38	8233.00
843.81	8087.00
844.25	7975.00
844.69	7983.00
845.13	8001.00
845.57	7909.00
846.01	8029.00
846.45	8086.00
846.88	8041.00
847.32	8182.00
847.76	8206.00
848.20	8205.00
848.64	8137.00
849.08	8092.00
849.51	8062.00
849.95	7946.00
850.39	7936.00
850.83	8143.00
851.27	7948.00
851.70	7939.00
852.14	7888.00
852.58	7735.00
853.02	7505.00
853.46	7473.00
853.89	7342.00
854.33	7429.00
854.77	7676.00
855.21	7972.00
855.65	8247.00
856.08	8240.00
856.52	8225.00
856.96	8213.00
857.40	8049.00
857.83	7902.00
858.27	7924.00
858.71	7772.00
859.15	7735.00
859.58	7829.00
860.02	7903.00
860.46	7882.00
860.89	8086.00
861.33	8092.00
861.77	8113.00
862.21	8224.00
862.64	8219.00
863.08	8103.00
863.52	8217.00
863.95	8016.00
864.39	7927.00
864.83	7732.00
865.27	7447.00
865.70	7525.00
866.14	7310.00
866.58	7374.00
867.01	7623.00
867.45	7804.00
867.89	7853.00
868.32	7970.00
868.76	8089.00
869.20	8167.00
869.63	8234.00
870.07	8061.00
870.51	7867.00
870.94	7817.00
871.38	7642.00
871.82	7582.00
872.25	7552.00
872.69	7501.00
873.13	7601.00
873.56	7608.00
874.00	7789.00
874.43	7745.00
874.87	7783.00
875.31	8001.00
875.74	7925.00
876.18	7996.00
876.61	7885.00
877.05	7909.00
877.49	7819.00
877.92	7708.00
878.36	7696.00
878.79	7595.00
879.23	7529.00
879.67	7401.00
880.10	7324.00
880.54	7421.00
880.97	7461.00
881.41	7589.00
881.84	7801.00
882.28	7862.00
882.72	7929.00
883.15	7930.00
883.59	7929.00
884.02	8051.00
884.46	7936.00
884.89	7877.00
885.33	7787.00
885.76	7584.00
886.20	7392.00
886.63	7515.00
887.07	7298.00
887.50	7278.00
887.94	7331.00
888.37	7451.00
888.81	7613.00
889.24	7501.00
889.68	7721.00
890.11	7590.00
890.55	7727.00
890.98	7753.00
891.42	7733.00
891.85	7675.00
892.29	7662.00
892.72	7507.00
893.16	7353.00
893.59	7283.00
894.03	7112.00
894.46	6970.00
894.90	6783.00
895.33	6617.00
895.77	6542.00
896.20	6526.00
896.63	6582.00
897.07	6525.00
897.50	6478.00
897.94	6616.00
898.37	6825.00
898.81	6407.00
899.24	6433.00
899.68	6650.00
900.11	6623.00
900.54	6440.00
900.98	6471.00
901.41	6471.00
901.85	6505.00
902.28	6382.00
902.71	6435.00
903.15	6709.00
903.58	6817.00
904.02	6737.00
904.45	6754.00
904.88	6799.00
905.32	6645.00
905.75	6775.00
906.18	6487.00
906.62	6639.00
907.05	6564.00
907.48	6485.00
907.92	6553.00
908.35	6578.00
908.79	6335.00
909.22	6261.00
909.65	6265.00
910.09	6288.00
910.52	6401.00
910.95	6267.00
911.38	6253.00
911.82	6106.00
912.25	6280.00
912.68	6335.00
913.12	6327.00
913.55	6248.00
913.98	6407.00
914.42	6523.00
914.85	6527.00
915.28	6336.00
915.72	6322.00
916.15	6373.00
916.58	6403.00
917.01	6301.00
917.45	6182.00
917.88	6252.00
918.31	6349.00
918.74	6431.00
919.18	6538.00
919.61	6512.00
920.04	6607.00
920.47	6662.00
920.91	6735.00
921.34	6625.00
921.77	6599.00
922.20	6756.00
922.64	6706.00
923.07	6720.00
923.50	6621.00
923.93	6556.00
924.37	6491.00
924.80	6395.00
925.23	6402.00
925.66	6322.00
926.09	6069.00
926.53	5991.00
926.96	5883.00
927.39	5864.00
927.82	5626.00
928.25	5397.00
928.69	5477.00
929.12	5301.00
929.55	5272.00
929.98	5161.00
930.41	5018.00
930.84	4841.00
931.28	4642.00
931.71	4617.00
932.14	4457.00
932.57	4392.00
933.00	4258.00
933.43	4263.00
933.86	4130.00
934.30	4068.00
934.73	4265.00
935.16	4063.00
935.59	4057.00
936.02	4103.00
936.45	4069.00
936.88	4076.00
937.31	4276.00
937.75	4293.00
938.18	4385.00
938.61	4485.00
939.04	4495.00
939.47	4497.00
939.90	4387.00
940.33	4409.00
940.76	4225.00
941.19	4201.00
941.62	4115.00
942.05	4084.00
942.48	4016.00
942.91	3909.00
943.35	4040.00
943.78	4011.00
944.21	3980.00
944.64	4090.00
945.07	4119.00
945.50	4052.00
945.93	4067.00
946.36	4196.00
946.79	4226.00
947.22	4243.00
947.65	4259.00
948.08	4112.00
948.51	4258.00
948.94	4261.00
949.37	4358.00
949.80	4211.00
950.23	4187.00
950.66	4274.00
951.09	4298.00
951.52	4131.00
951.95	4258.00
952.38	4246.00
952.81	4407.00
953.24	4386.00
953.67	4452.00
954.10	4395.00
954.53	4506.00
954.96	4480.00
955.39	4558.00
955.82	4623.00
956.25	4592.00
956.68	4745.00
957.11	4621.00
957.53	4581.00
957.96	4601.00
958.39	4539.00
958.82	4475.00
959.25	4550.00
959.68	4527.00
960.11	4684.00
960.54	4637.00
960.97	4783.00
961.40	4835.00
961.83	4841.00
962.26	4756.00
962.68	5008.00
963.11	5019.00
963.54	5075.00
963.97	5073.00
964.40	5078.00
964.83	5191.00
965.26	5127.00
965.69	5084.00
966.11	5141.00
966.54	5032.00
966.97	5239.00
967.40	5311.00
967.83	5411.00
968.26	5317.00
968.69	5253.00
969.11	5334.00
969.54	5205.00
969.97	5276.00
970.40	5421.00
970.83	5323.00
971.26	5371.00
971.68	5361.00
972.11	5345.00
972.54	5421.00
972.97	5484.00
973.40	5357.00
973.82	5331.00
974.25	5355.00
974.68	5325.00
975.11	5266.00
975.54	5221.00
975.96	5221.00
976.39	5228.00
976.82	5277.00
977.25	5133.00
977.67	5197.00
978.10	5209.00
978.53	5252.00
978.96	5341.00
979.38	5373.00
979.81	5358.00
980.24	5495.00
980.67	5566.00
981.09	5611.00
981.52	5620.00
981.95	5605.00
982.38	5613.00
982.80	5602.00
983.23	5731.00
983.66	5715.00
984.08	5607.00
984.51	5520.00
984.94	5611.00
985.37	5657.00
985.79	5488.00
986.22	5455.00
986.65	5419.00
987.07	5441.00
987.50	5433.00
987.93	5398.00
988.35	5475.00
988.78	5477.00
989.21	5413.00
989.63	5537.00
990.06	5562.00
990.49	5593.00
990.91	5722.00
991.34	5676.00
991.77	5666.00
992.19	5634.00
992.62	5646.00
993.05	5623.00
993.47	5617.00
993.90	5598.00
994.32	5568.00
994.75	5558.00
995.18	5434.00
995.60	5381.00
996.03	5292.00
996.45	5410.00
996.88	5347.00
997.31	5321.00
997.73	5376.00
998.16	5313.00
998.58	5419.00
999.01	5434.00
999.44	5333.00
999.86	5502.00
1000.29	5434.00
1000.71	5498.00
1001.14	5505.00
1001.56	5503.00
1001.99	5518.00
1002.41	5417.00
1002.84	5415.00
1003.27	5223.00
1003.69	5241.00
1004.12	5173.00
1004.54	5201.00
1004.97	5109.00
1005.39	5087.00
1005.82	5153.00
1006.24	5080.00
1006.67	5040.00
1007.09	5040.00
1007.52	5030.00
1007.94	5070.00
1008.37	5193.00
1008.79	5118.00
1009.22	5114.00
1009.64	5113.00
1010.07	5160.00
1010.49	5148.00
1010.92	5124.00
1011.34	5150.00
1011.77	5097.00
1012.19	5154.00
1012.62	5111.00
1013.04	5034.00
1013.46	5115.00
1013.89	4895.00
1014.31	4960.00
1014.74	4866.00
1015.16	4850.00
1015.59	4785.00
1016.01	4909.00
1016.44	4856.00
1016.86	5768.00
1017.28	4874.00
1017.71	4843.00
1018.13	5040.00
1018.56	4991.00
1018.98	5026.00
1019.40	4971.00
1019.83	5017.00
1020.25	5031.00
1020.68	5033.00
1021.10	5082.00
1021.52	5043.00
1021.95	5266.00
1022.37	5177.00
1022.79	5056.00
1023.22	5020.00
1023.64	5012.00
1024.07	5014.00
1024.49	4981.00
1024.91	4904.00
1025.34	4883.00
1025.76	5024.00
1026.18	4868.00
1026.61	4936.00
1027.03	4776.00
1027.45	4904.00
1027.88	4877.00
1028.30	5007.00
1028.72	4901.00
1029.15	4904.00
1029.57	4881.00
1029.99	4987.00
1030.41	4846.00
1030.84	4930.00
1031.26	4919.00
1031.68	4875.00
1032.11	4927.00
1032.53	4785.00
1032.95	4735.00
1033.37	4809.00
1033.80	4766.00
1034.22	4742.00
1034.64	4799.00
1035.06	4685.00
1035.49	4649.00
1035.91	4622.00
1036.33	4541.00
1036.75	4622.00
1037.18	4652.00
1037.60	4595.00
1038.02	4645.00
1038.44	4620.00
1038.87	4546.00
1039.29	4565.00
1039.71	4607.00
1040.13	4553.00
1040.55	4633.00
1040.98	4675.00
1041.40	4597.00
1041.82	4544.00
1042.24	4541.00
1042.66	4540.00
1043.09	4491.00
1043.51	4475.00
1043.93	4429.00
1044.35	4393.00
1044.77	4417.00
1045.20	4379.00
1045.62	4324.00
1046.04	4387.00
1046.46	4335.00
1046.88	4271.00
1047.30	4311.00
1047.72	4355.00
1048.15	4345.00
1048.57	4239.00
1048.99	4282.00
1049.41	4328.00
1049.83	4350.00
1050.25	4331.00
1050.67	4269.00
1051.09	4300.00
1051.52	4261.00
1051.94	4153.00
1052.36	4223.00
1052.78	4181.00
1053.20	4209.00
1053.62	4148.00
1054.04	4223.00
1054.46	4199.00
1054.88	4278.00
1055.30	4165.00
1055.72	4189.00
1056.14	4143.00
1056.57	4312.00
1056.99	4028.00
1057.41	4109.00
1057.83	4119.00
1058.25	4059.00
1058.67	4037.00
1059.09	3965.00
1059.51	4036.00
1059.93	3959.00
1060.35	3952.00
1060.77	4029.00
1061.19	4027.00
1061.61	4014.00
1062.03	3951.00
1062.45	3963.00
1062.87	4001.00
1063.29	4017.00
1063.71	3897.00
1064.13	3887.00
1064.55	3896.00
1064.97	3991.00
1065.39	4012.00
1065.81	3851.00
1066.23	3891.00
1066.65	3903.00
1067.07	3982.00
1067.49	3924.00
1067.91	3805.00
1068.33	3816.00
1068.75	3923.00
1069.17	3899.00
1069.59	3903.00
1070.00	3782.00
1070.42	3807.00
1070.84	3770.00
1071.26	3767.00
1071.68	3777.00
1072.10	3788.00
1072.52	3805.00
1072.94	3734.00
1073.36	3751.00
1073.78	3789.00
1074.20	3781.00
1074.62	3759.00
1075.03	3722.00
1075.45	3755.00
1075.87	3819.00
1076.29	3756.00
1076.71	3798.00
1077.13	3802.00
1077.55	3648.00
1077.97	3731.00
1078.38	3706.00
1078.80	3697.00
1079.22	3756.00
1079.64	3707.00
1080.06	3633.00
1080.48	3687.00
1080.89	3645.00
1081.31	3637.00
1081.73	3645.00
1082.15	3611.00
1082.57	3635.00
1082.99	3643.00
1083.40	3631.00
1083.82	3677.00
1084.24	3596.00
1084.66	3602.00
1085.08	3619.00
1085.49	3545.00
1085.91	3679.00
1086.33	4845.00
1086.75	3655.00
1087.17	3568.00
1087.58	3596.00
1088.00	3593.00
1088.42	3639.00
1088.84	3578.00
1089.25	3547.00
1089.67	3607.00
1090.09	3558.00
1090.51	3512.00
1090.92	3576.00
1091.34	3503.00
1091.76	3512.00
1092.18	3507.00
1092.59	3534.00
1093.01	3509.00
1093.43	3514.00
1093.84	3496.00
1094.26	3523.00
1094.68	3459.00
1095.10	3431.00
1095.51	3486.00
1095.93	3447.00
1096.35	3511.00
1096.76	3492.00
1097.18	3506.00
1097.60	3458.00
1098.01	3432.00
1098.43	3421.00
1098.85	3433.00
1099.26	3409.00
1099.68	3402.00
1100.10	3381.00
1100.51	3430.00
1100.93	3390.00
1101.35	3411.00
1101.76	3412.00
1102.18	3928.00
1102.60	3465.00
1103.01	3304.00
1103.43	3402.00
1103.84	3383.00
1104.26	3371.00
1104.68	3405.00
1105.09	3297.00
1105.51	3393.00
1105.92	3413.00
1106.34	3351.00
1106.76	3384.00
1107.17	3391.00
1107.59	3377.00
1108.00	3267.00
1108.42	3303.00
1108.83	3294.00
1109.25	3297.00
1109.67	3290.00
1110.08	3301.00
1110.50	3282.00
1110.91	3295.00
1111.33	3278.00
1111.74	3267.00
1112.16	3297.00
1112.57	3292.00
1112.99	3194.00
1113.41	3292.00
1113.82	3247.00
1114.24	3293.00
1114.65	3244.00
1115.07	3127.00
1115.48	3106.00
1115.90	2189.00
1116.31	2215.00
1116.73	2210.00
1117.14	2213.00
>>>>>End Processed Spectral Data<<<<<
