SpectraSuite Data File
++++++++++++++++++++++++++++++++++++
Date: Tue May 29 13:10:34 EEST 2018
User: CanSEE
Dark Spectrum Present: No
Reference Spectrum Present: No
Number of Sampled Component Spectra: 1
Spectrometers: MAYP11278
Integration Time (usec): 230000 (MAYP11278)
Spectra Averaged: 1 (MAYP11278)
Boxcar Smoothing: 0 (MAYP11278)
Correct for Electrical Dark: No (MAYP11278)
Strobe/Lamp Enabled: No (MAYP11278)
Correct for Detector Non-linearity: No (MAYP11278)
Correct for Stray Light: No (MAYP11278)
Number of Pixels in Processed Spectrum: 2068
>>>>>Begin Processed Spectral Data<<<<<
187.82	2335.00
188.30	2231.00
188.78	2209.00
189.26	2209.00
189.73	3208.00
190.21	3285.00
190.69	3413.00
191.17	3374.00
191.64	3464.00
192.12	3448.00
192.60	3397.00
193.07	3343.00
193.55	3430.00
194.03	3393.00
194.51	3440.00
194.98	3368.00
195.46	3479.00
195.94	3402.00
196.42	3393.00
196.89	3509.00
197.37	3404.00
197.85	3352.00
198.32	3365.00
198.80	3426.00
199.28	3411.00
199.76	3429.00
200.23	3371.00
200.71	3372.00
201.19	3460.00
201.66	3433.00
202.14	3423.00
202.62	3367.00
203.09	3414.00
203.57	3391.00
204.05	3435.00
204.53	3447.00
205.00	3383.00
205.48	3393.00
205.96	3476.00
206.43	3446.00
206.91	3432.00
207.39	3518.00
207.86	3427.00
208.34	3406.00
208.82	3431.00
209.29	3492.00
209.77	3454.00
210.25	3393.00
210.72	3399.00
211.20	3431.00
211.68	3438.00
212.15	3407.00
212.63	3482.00
213.11	3419.00
213.58	3442.00
214.06	3518.00
214.53	3460.00
215.01	3490.00
215.49	3452.00
215.96	3451.00
216.44	3479.00
216.92	3481.00
217.39	3400.00
217.87	3437.00
218.35	3477.00
218.82	3378.00
219.30	3391.00
219.77	3404.00
220.25	3422.00
220.73	3551.00
221.20	3396.00
221.68	3463.00
222.15	3421.00
222.63	3465.00
223.11	3442.00
223.58	3479.00
224.06	3405.00
224.53	3379.00
225.01	3397.00
225.49	3427.00
225.96	3417.00
226.44	3463.00
226.91	3464.00
227.39	3393.00
227.87	3441.00
228.34	3457.00
228.82	3454.00
229.29	3427.00
229.77	3419.00
230.24	3420.00
230.72	3458.00
231.20	3479.00
231.67	3455.00
232.15	3463.00
232.62	3411.00
233.10	3432.00
233.57	3491.00
234.05	3615.00
234.53	3496.00
235.00	3411.00
235.48	3401.00
235.95	3467.00
236.43	3465.00
236.90	3515.00
237.38	3431.00
237.85	3441.00
238.33	3375.00
238.80	3432.00
239.28	3437.00
239.75	3391.00
240.23	3455.00
240.71	3509.00
241.18	3475.00
241.66	3434.00
242.13	3477.00
242.61	3468.00
243.08	3361.00
243.56	3448.00
244.03	3464.00
244.51	3513.00
244.98	3487.00
245.46	3473.00
245.93	5194.00
246.41	3395.00
246.88	3451.00
247.36	3437.00
247.83	3443.00
248.31	3447.00
248.78	3388.00
249.26	3445.00
249.73	3440.00
250.21	3478.00
250.68	3502.00
251.16	3453.00
251.63	3553.00
252.10	3513.00
252.58	3455.00
253.05	3528.00
253.53	3448.00
254.00	3464.00
254.48	3455.00
254.95	3455.00
255.43	3444.00
255.90	3415.00
256.38	3488.00
256.85	3501.00
257.33	3496.00
257.80	3586.00
258.27	3457.00
258.75	3441.00
259.22	3441.00
259.70	3481.00
260.17	3489.00
260.65	3453.00
261.12	3447.00
261.59	3511.00
262.07	3421.00
262.54	3460.00
263.02	3427.00
263.49	3382.00
263.97	3491.00
264.44	3509.00
264.91	3421.00
265.39	3483.00
265.86	3511.00
266.34	3497.00
266.81	3459.00
267.28	3483.00
267.76	3405.00
268.23	3489.00
268.71	3342.00
269.18	3373.00
269.65	3398.00
270.13	3464.00
270.60	3484.00
271.08	3491.00
271.55	3439.00
272.02	3394.00
272.50	3433.00
272.97	3380.00
273.44	3467.00
273.92	3564.00
274.39	3475.00
274.87	3457.00
275.34	3396.00
275.81	3406.00
276.29	3490.00
276.76	3457.00
277.23	3365.00
277.71	3380.00
278.18	3322.00
278.65	3540.00
279.13	3358.00
279.60	3445.00
280.07	3703.00
280.55	3664.00
281.02	3740.00
281.50	3498.00
281.97	3502.00
282.44	3505.00
282.91	3479.00
283.39	3513.00
283.86	3465.00
284.33	3431.00
284.81	3483.00
285.28	3425.00
285.75	3478.00
286.23	3538.00
286.70	3470.00
287.17	3477.00
287.65	3540.00
288.12	3476.00
288.59	3476.00
289.07	3421.00
289.54	3524.00
290.01	3417.00
290.48	3488.00
290.96	3433.00
291.43	3499.00
291.90	3570.00
292.38	3408.00
292.85	3545.00
293.32	3470.00
293.79	3461.00
294.27	3467.00
294.74	3453.00
295.21	3464.00
295.69	3480.00
296.16	3575.00
296.63	3533.00
297.10	3491.00
297.58	3470.00
298.05	3493.00
298.52	3481.00
298.99	3508.00
299.47	3454.00
299.94	3496.00
300.41	3464.00
300.88	3518.00
301.36	3477.00
301.83	3547.00
302.30	3416.00
302.77	3514.00
303.25	3522.00
303.72	3450.00
304.19	3463.00
304.66	3435.00
305.13	3490.00
305.61	3502.00
306.08	3477.00
306.55	3482.00
307.02	3436.00
307.49	3475.00
307.97	3477.00
308.44	3464.00
308.91	3553.00
309.38	3534.00
309.86	3517.00
310.33	3480.00
310.80	3490.00
311.27	3480.00
311.74	3529.00
312.21	3490.00
312.69	3617.00
313.16	3457.00
313.63	3461.00
314.10	3477.00
314.57	3465.00
315.05	3496.00
315.52	3516.00
315.99	3492.00
316.46	3490.00
316.93	3552.00
317.40	3476.00
317.88	3626.00
318.35	3488.00
318.82	3493.00
319.29	3444.00
319.76	3531.00
320.23	3572.00
320.70	3515.00
321.18	3490.00
321.65	3441.00
322.12	3451.00
322.59	3582.00
323.06	3451.00
323.53	3607.00
324.00	3473.00
324.48	3498.00
324.95	3524.00
325.42	3511.00
325.89	3507.00
326.36	3508.00
326.83	3539.00
327.30	3526.00
327.77	3553.00
328.24	3532.00
328.72	3518.00
329.19	3491.00
329.66	3555.00
330.13	3530.00
330.60	3531.00
331.07	3544.00
331.54	3603.00
332.01	3470.00
332.48	3616.00
332.95	3606.00
333.43	3543.00
333.90	3572.00
334.37	3537.00
334.84	3494.00
335.31	3660.00
335.78	3473.00
336.25	3498.00
336.72	3497.00
337.19	3531.00
337.66	3493.00
338.13	3502.00
338.60	3589.00
339.07	3563.00
339.54	3460.00
340.01	3449.00
340.49	3468.00
340.96	3499.00
341.43	3555.00
341.90	3517.00
342.37	3506.00
342.84	3559.00
343.31	3524.00
343.78	3505.00
344.25	3530.00
344.72	3500.00
345.19	3514.00
345.66	3547.00
346.13	3508.00
346.60	3490.00
347.07	3611.00
347.54	3494.00
348.01	3553.00
348.48	3518.00
348.95	3483.00
349.42	3494.00
349.89	3530.00
350.36	3489.00
350.83	3493.00
351.30	3537.00
351.77	3600.00
352.24	3523.00
352.71	3529.00
353.18	3476.00
353.65	3593.00
354.12	3526.00
354.59	3513.00
355.06	3521.00
355.53	3574.00
356.00	3465.00
356.47	3587.00
356.94	3493.00
357.41	3689.00
357.88	3539.00
358.35	3443.00
358.82	3494.00
359.28	3483.00
359.75	3509.00
360.22	3555.00
360.69	3611.00
361.16	3557.00
361.63	3470.00
362.10	3542.00
362.57	3520.00
363.04	3530.00
363.51	3627.00
363.98	3548.00
364.45	3471.00
364.92	3528.00
365.39	3502.00
365.86	3484.00
366.32	3535.00
366.79	3540.00
367.26	4465.00
367.73	3545.00
368.20	3506.00
368.67	3571.00
369.14	3464.00
369.61	3586.00
370.08	3533.00
370.55	3499.00
371.02	4381.00
371.48	3550.00
371.95	3531.00
372.42	3467.00
372.89	3509.00
373.36	3529.00
373.83	3466.00
374.30	3497.00
374.77	3501.00
375.23	3450.00
375.70	3594.00
376.17	3497.00
376.64	3457.00
377.11	3451.00
377.58	3528.00
378.05	3526.00
378.51	3512.00
378.98	3470.00
379.45	3503.00
379.92	3544.00
380.39	3611.00
380.86	3507.00
381.33	3591.00
381.79	3572.00
382.26	3459.00
382.73	3499.00
383.20	3527.00
383.67	3561.00
384.14	3509.00
384.60	3770.00
385.07	3508.00
385.54	3513.00
386.01	3474.00
386.48	3567.00
386.94	3438.00
387.41	3467.00
387.88	3513.00
388.35	3558.00
388.82	3567.00
389.28	3471.00
389.75	3532.00
390.22	3508.00
390.69	3505.00
391.16	3531.00
391.62	3501.00
392.09	3465.00
392.56	3497.00
393.03	3476.00
393.50	3635.00
393.96	3486.00
394.43	3562.00
394.90	3481.00
395.37	3563.00
395.83	3734.00
396.30	3465.00
396.77	3517.00
397.24	3508.00
397.70	3489.00
398.17	3491.00
398.64	3470.00
399.11	3466.00
399.57	3534.00
400.04	3479.00
400.51	3548.00
400.98	3450.00
401.44	3551.00
401.91	3530.00
402.38	3507.00
402.84	3478.00
403.31	3566.00
403.78	3519.00
404.25	3582.00
404.71	3611.00
405.18	3579.00
405.65	3502.00
406.12	3555.00
406.58	3551.00
407.05	3605.00
407.52	3551.00
407.98	4028.00
408.45	3548.00
408.92	3519.00
409.38	3606.00
409.85	3489.00
410.32	3606.00
410.78	3518.00
411.25	3639.00
411.72	3507.00
412.18	3497.00
412.65	3581.00
413.12	3543.00
413.59	3587.00
414.05	3575.00
414.52	3643.00
414.98	3545.00
415.45	3642.00
415.92	3565.00
416.38	3587.00
416.85	3649.00
417.32	3563.00
417.78	3538.00
418.25	3538.00
418.72	3601.00
419.18	3571.00
419.65	3550.00
420.12	3644.00
420.58	3542.00
421.05	3565.00
421.51	3575.00
421.98	3599.00
422.45	3577.00
422.91	3593.00
423.38	3620.00
423.85	3655.00
424.31	3589.00
424.78	3632.00
425.24	3583.00
425.71	3684.00
426.18	3577.00
426.64	3629.00
427.11	3597.00
427.57	3653.00
428.04	3550.00
428.51	3654.00
428.97	3637.00
429.44	3583.00
429.90	3602.00
430.37	3709.00
430.83	3583.00
431.30	3597.00
431.77	3697.00
432.23	3669.00
432.70	3600.00
433.16	3603.00
433.63	3664.00
434.09	3591.00
434.56	3679.00
435.03	3579.00
435.49	3712.00
435.96	3654.00
436.42	3609.00
436.89	3682.00
437.35	3657.00
437.82	3714.00
438.28	3618.00
438.75	3649.00
439.21	3807.00
439.68	3666.00
440.14	3684.00
440.61	3724.00
441.07	3629.00
441.54	3638.00
442.00	3809.00
442.47	3634.00
442.94	3695.00
443.40	3692.00
443.87	3616.00
444.33	3775.00
444.80	3705.00
445.26	3689.00
445.73	3650.00
446.19	3711.00
446.65	3693.00
447.12	3727.00
447.58	3695.00
448.05	3718.00
448.51	3746.00
448.98	3730.00
449.44	3711.00
449.91	3661.00
450.37	3706.00
450.84	3690.00
451.30	3742.00
451.77	3748.00
452.23	3650.00
452.70	3798.00
453.16	3693.00
453.62	3721.00
454.09	3722.00
454.55	3735.00
455.02	3685.00
455.48	3739.00
455.95	3752.00
456.41	3661.00
456.88	3808.00
457.34	3670.00
457.80	3711.00
458.27	3642.00
458.73	3707.00
459.20	3717.00
459.66	3739.00
460.13	3665.00
460.59	3667.00
461.05	3742.00
461.52	3675.00
461.98	3673.00
462.45	3651.00
462.91	3711.00
463.37	3623.00
463.84	3695.00
464.30	3655.00
464.76	3600.00
465.23	3620.00
465.69	3734.00
466.16	3614.00
466.62	3637.00
467.08	3601.00
467.55	3584.00
468.01	3637.00
468.48	3656.00
468.94	3602.00
469.40	3555.00
469.87	3600.00
470.33	3619.00
470.79	3590.00
471.26	3592.00
471.72	3567.00
472.18	3580.00
472.65	3570.00
473.11	3642.00
473.57	3582.00
474.04	3529.00
474.50	3584.00
474.96	3525.00
475.43	3655.00
475.89	3590.00
476.35	3587.00
476.82	3595.00
477.28	3595.00
477.74	3642.00
478.21	3608.00
478.67	3637.00
479.13	3574.00
479.59	3671.00
480.06	3602.00
480.52	3592.00
480.98	3580.00
481.45	3609.00
481.91	3586.00
482.37	3522.00
482.84	3576.00
483.30	3530.00
483.76	3592.00
484.22	3622.00
484.69	3582.00
485.15	3533.00
485.61	3447.00
486.07	3495.00
486.54	3521.00
487.00	3590.00
487.46	3509.00
487.92	3492.00
488.39	3556.00
488.85	3549.00
489.31	3591.00
489.77	3631.00
490.24	3537.00
490.70	3586.00
491.16	3519.00
491.62	3533.00
492.09	3511.00
492.55	3640.00
493.01	3571.00
493.47	3590.00
493.94	3583.00
494.40	3620.00
494.86	3624.00
495.32	3586.00
495.78	3594.00
496.25	3564.00
496.71	3621.00
497.17	3727.00
497.63	3635.00
498.09	3602.00
498.56	3612.00
499.02	3632.00
499.48	3733.00
499.94	3642.00
500.40	3607.00
500.87	3655.00
501.33	3594.00
501.79	3663.00
502.25	3687.00
502.71	3933.00
503.17	3676.00
503.64	3725.00
504.10	3627.00
504.56	3739.00
505.02	3759.00
505.48	3736.00
505.94	3736.00
506.40	3778.00
506.87	3745.00
507.33	3790.00
507.79	3805.00
508.25	3796.00
508.71	3757.00
509.17	3793.00
509.63	3819.00
510.10	3873.00
510.56	3784.00
511.02	3929.00
511.48	3999.00
511.94	3851.00
512.40	3879.00
512.86	3902.00
513.32	3989.00
513.78	3867.00
514.25	4040.00
514.71	4664.00
515.17	3977.00
515.63	4072.00
516.09	4045.00
516.55	4082.00
517.01	4149.00
517.47	4085.00
517.93	4124.00
518.39	4299.00
518.85	4206.00
519.32	4280.00
519.78	4289.00
520.24	4295.00
520.70	4410.00
521.16	4447.00
521.62	4456.00
522.08	4518.00
522.54	4465.00
523.00	4545.00
523.46	4556.00
523.92	4557.00
524.38	4765.00
524.84	4683.00
525.30	4751.00
525.76	4733.00
526.22	4650.00
526.68	4625.00
527.14	4690.00
527.60	4742.00
528.06	4878.00
528.52	4945.00
528.98	4929.00
529.44	4910.00
529.90	5015.00
530.36	5045.00
530.82	4978.00
531.28	5148.00
531.74	5020.00
532.20	4981.00
532.66	5005.00
533.12	5076.00
533.58	5104.00
534.04	5078.00
534.50	5145.00
534.96	5161.00
535.42	5223.00
535.88	5215.00
536.34	5189.00
536.80	5095.00
537.26	5231.00
537.72	5254.00
538.18	5287.00
538.64	5289.00
539.10	5290.00
539.56	5409.00
540.02	5133.00
540.48	5320.00
540.94	5211.00
541.40	5260.00
541.86	5363.00
542.32	5304.00
542.78	5254.00
543.24	5473.00
543.69	5305.00
544.15	5535.00
544.61	5429.00
545.07	5337.00
545.53	5378.00
545.99	5415.00
546.45	5435.00
546.91	5461.00
547.37	5419.00
547.83	5451.00
548.29	5459.00
548.74	5473.00
549.20	5421.00
549.66	5556.00
550.12	5492.00
550.58	5403.00
551.04	5476.00
551.50	5486.00
551.96	5573.00
552.42	5485.00
552.87	5439.00
553.33	5540.00
553.79	5519.00
554.25	5517.00
554.71	5617.00
555.17	5474.00
555.63	5597.00
556.08	5448.00
556.54	5523.00
557.00	5325.00
557.46	5507.00
557.92	5523.00
558.38	5363.00
558.83	5374.00
559.29	5275.00
559.75	5309.00
560.21	5374.00
560.67	5450.00
561.13	5402.00
561.58	5354.00
562.04	5317.00
562.50	5329.00
562.96	5358.00
563.42	5349.00
563.87	5260.00
564.33	5321.00
564.79	5302.00
565.25	5247.00
565.71	5161.00
566.16	5215.00
566.62	5179.00
567.08	5173.00
567.54	5179.00
568.00	5113.00
568.45	5071.00
568.91	5017.00
569.37	5097.00
569.83	5028.00
570.28	4975.00
570.74	4982.00
571.20	5000.00
571.66	4951.00
572.11	4967.00
572.57	4956.00
573.03	4942.00
573.49	4897.00
573.94	4899.00
574.40	4948.00
574.86	4841.00
575.32	4721.00
575.77	4801.00
576.23	4703.00
576.69	4861.00
577.15	4720.00
577.60	4773.00
578.06	4640.00
578.52	4763.00
578.97	4686.00
579.43	4677.00
579.89	4742.00
580.34	4731.00
580.80	4713.00
581.26	4675.00
581.72	4705.00
582.17	4701.00
582.63	4639.00
583.09	4687.00
583.54	4691.00
584.00	4595.00
584.46	4664.00
584.91	4605.00
585.37	4709.00
585.83	4515.00
586.28	4503.00
586.74	4545.00
587.20	4542.00
587.65	4617.00
588.11	4405.00
588.57	4428.00
589.02	4301.00
589.48	4381.00
589.94	4459.00
590.39	4487.00
590.85	4447.00
591.30	4458.00
591.76	4507.00
592.22	4454.00
592.67	4429.00
593.13	4420.00
593.59	4516.00
594.04	4453.00
594.50	4399.00
594.95	4439.00
595.41	4380.00
595.87	4424.00
596.32	4536.00
596.78	4444.00
597.23	4451.00
597.69	4447.00
598.15	4347.00
598.60	4420.00
599.06	4484.00
599.51	4429.00
599.97	4481.00
600.43	4462.00
600.88	4437.00
601.34	4459.00
601.79	4355.00
602.25	4557.00
602.70	4345.00
603.16	4387.00
603.61	4366.00
604.07	4337.00
604.53	4389.00
604.98	4371.00
605.44	4432.00
605.89	4365.00
606.35	4259.00
606.80	4379.00
607.26	4320.00
607.71	4344.00
608.17	4306.00
608.62	4339.00
609.08	4415.00
609.53	4274.00
609.99	4248.00
610.44	4242.00
610.90	4257.00
611.35	4196.00
611.81	4337.00
612.26	4245.00
612.72	4238.00
613.17	4319.00
613.63	4109.00
614.08	4146.00
614.54	4105.00
614.99	4126.00
615.45	4137.00
615.90	4146.00
616.36	4115.00
616.81	4130.00
617.27	4132.00
617.72	4215.00
618.18	4102.00
618.63	4092.00
619.09	4081.00
619.54	4164.00
619.99	4111.00
620.45	4179.00
620.90	4190.00
621.36	4067.00
621.81	4120.00
622.27	4162.00
622.72	4102.00
623.18	4069.00
623.63	4049.00
624.08	4103.00
624.54	4045.00
624.99	4025.00
625.45	4017.00
625.90	4010.00
626.35	4049.00
626.81	4089.00
627.26	4001.00
627.72	4063.00
628.17	4030.00
628.62	3977.00
629.08	4024.00
629.53	4056.00
629.99	3973.00
630.44	4084.00
630.89	4046.00
631.35	4042.00
631.80	4054.00
632.26	4121.00
632.71	3993.00
633.16	4003.00
633.62	4001.00
634.07	4024.00
634.52	3951.00
634.98	4017.00
635.43	3980.00
635.88	3971.00
636.34	4036.00
636.79	3989.00
637.24	3944.00
637.70	3999.00
638.15	4034.00
638.60	3951.00
639.06	3955.00
639.51	3899.00
639.96	3913.00
640.42	3933.00
640.87	3978.00
641.32	3862.00
641.78	3867.00
642.23	3877.00
642.68	3847.00
643.14	3860.00
643.59	3939.00
644.04	3827.00
644.49	3807.00
644.95	3803.00
645.40	3815.00
645.85	3831.00
646.31	3817.00
646.76	3824.00
647.21	3829.00
647.66	3768.00
648.12	3770.00
648.57	3689.00
649.02	3805.00
649.47	3746.00
649.93	3925.00
650.38	3719.00
650.83	3712.00
651.28	3735.00
651.74	3755.00
652.19	3713.00
652.64	3729.00
653.09	3713.00
653.55	3716.00
654.00	3720.00
654.45	3745.00
654.90	3655.00
655.35	3609.00
655.81	3675.00
656.26	3593.00
656.71	3661.00
657.16	3675.00
657.62	3698.00
658.07	3644.00
658.52	3664.00
658.97	3583.00
659.42	3809.00
659.88	3623.00
660.33	3673.00
660.78	3615.00
661.23	3598.00
661.68	3622.00
662.13	3608.00
662.59	3575.00
663.04	3627.00
663.49	3548.00
663.94	3613.00
664.39	3552.00
664.84	3534.00
665.30	3573.00
665.75	3499.00
666.20	3539.00
666.65	3560.00
667.10	3668.00
667.55	3578.00
668.00	3512.00
668.46	3573.00
668.91	3522.00
669.36	3647.00
669.81	3448.00
670.26	3472.00
670.71	3565.00
671.16	3484.00
671.61	3589.00
672.06	3612.00
672.52	3511.00
672.97	3501.00
673.42	3599.00
673.87	3679.00
674.32	3509.00
674.77	3562.00
675.22	3460.00
675.67	3467.00
676.12	3527.00
676.57	3449.00
677.02	3529.00
677.47	3516.00
677.93	3618.00
678.38	3483.00
678.83	3494.00
679.28	3519.00
679.73	3442.00
680.18	3499.00
680.63	3491.00
681.08	3425.00
681.53	3435.00
681.98	3478.00
682.43	3550.00
682.88	3561.00
683.33	3513.00
683.78	3531.00
684.23	3601.00
684.68	3553.00
685.13	3543.00
685.58	3550.00
686.03	3570.00
686.48	3506.00
686.93	3511.00
687.38	3485.00
687.83	3574.00
688.28	3579.00
688.73	3779.00
689.18	3671.00
689.63	3577.00
690.08	3619.00
690.53	3715.00
690.98	3697.00
691.43	3790.00
691.88	3776.00
692.33	3889.00
692.78	3917.00
693.23	3963.00
693.68	4017.00
694.13	4041.00
694.58	4080.00
695.03	4375.00
695.48	4208.00
695.93	4291.00
696.38	4446.00
696.83	4388.00
697.28	4475.00
697.72	4556.00
698.17	4541.00
698.62	4702.00
699.07	4769.00
699.52	4752.00
699.97	4801.00
700.42	4942.00
700.87	5019.00
701.32	5224.00
701.77	5079.00
702.22	5212.00
702.67	5236.00
703.11	5300.00
703.56	5416.00
704.01	5532.00
704.46	5591.00
704.91	5747.00
705.36	5796.00
705.81	5828.00
706.26	5843.00
706.70	5987.00
707.15	6062.00
707.60	6133.00
708.05	6194.00
708.50	6290.00
708.95	6342.00
709.40	6408.00
709.84	6473.00
710.29	6615.00
710.74	6540.00
711.19	6725.00
711.64	6769.00
712.09	6884.00
712.53	6904.00
712.98	7073.00
713.43	7022.00
713.88	7116.00
714.33	7199.00
714.78	7193.00
715.22	7234.00
715.67	7207.00
716.12	7197.00
716.57	6985.00
717.02	6784.00
717.46	6723.00
717.91	6751.00
718.36	6775.00
718.81	6631.00
719.26	6679.00
719.70	6771.00
720.15	6784.00
720.60	7054.00
721.05	7497.00
721.49	7754.00
721.94	7864.00
722.39	7892.00
722.84	7775.00
723.28	7497.00
723.73	7571.00
724.18	7441.00
724.63	7580.00
725.07	7562.00
725.52	7765.00
725.97	7805.00
726.42	7953.00
726.86	8104.00
727.31	8027.00
727.76	8021.00
728.21	8224.00
728.65	8189.00
729.10	8247.00
729.55	8331.00
729.99	8497.00
730.44	8329.00
730.89	8557.00
731.33	8664.00
731.78	8896.00
732.23	9087.00
732.68	9231.00
733.12	9275.00
733.57	9455.00
734.02	9587.00
734.46	9785.00
734.91	9711.00
735.36	9767.00
735.80	9947.00
736.25	9814.00
736.70	9946.00
737.14	10063.00
737.59	10123.00
738.04	10137.00
738.48	10000.00
738.93	10099.00
739.37	10203.00
739.82	10361.00
740.27	10329.00
740.71	10392.00
741.16	10443.00
741.61	10467.00
742.05	10437.00
742.50	10519.00
742.94	10601.00
743.39	10649.00
743.84	10569.00
744.28	10705.00
744.73	10771.00
745.18	10841.00
745.62	10961.00
746.07	10955.00
746.51	10723.00
746.96	10734.00
747.40	10880.00
747.85	10853.00
748.30	10787.00
748.74	10832.00
749.19	10860.00
749.63	11039.00
750.08	10807.00
750.52	10801.00
750.97	10838.00
751.42	10872.00
751.86	10863.00
752.31	10834.00
752.75	10865.00
753.20	10779.00
753.64	10816.00
754.09	10833.00
754.53	10864.00
754.98	10814.00
755.42	10899.00
755.87	10770.00
756.31	10947.00
756.76	10729.00
757.20	10671.00
757.65	10641.00
758.09	10452.00
758.54	10107.00
758.98	9347.00
759.43	7851.00
759.87	6323.00
760.32	5363.00
760.76	5340.00
761.21	6011.00
761.65	6761.00
762.10	7038.00
762.54	6665.00
762.99	6548.00
763.43	6674.00
763.88	6896.00
764.32	7229.00
764.77	7711.00
765.21	8112.00
765.66	8544.00
766.10	8777.00
766.54	9154.00
766.99	9573.00
767.43	9799.00
767.88	9987.00
768.32	10223.00
768.77	10233.00
769.21	10417.00
769.66	10472.00
770.10	10627.00
770.54	10664.00
770.99	10711.00
771.43	10639.00
771.88	10693.00
772.32	10825.00
772.76	10675.00
773.21	10541.00
773.65	10553.00
774.10	10451.00
774.54	10488.00
774.98	10572.00
775.43	10577.00
775.87	10780.00
776.31	10751.00
776.76	10704.00
777.20	10693.00
777.65	10627.00
778.09	10604.00
778.53	10577.00
778.98	10509.00
779.42	10639.00
779.86	10558.00
780.31	10437.00
780.75	10594.00
781.19	10650.00
781.64	10624.00
782.08	10619.00
782.52	10601.00
782.97	10455.00
783.41	10449.00
783.85	10329.00
784.30	10214.00
784.74	10345.00
785.18	10339.00
785.63	10223.00
786.07	10363.00
786.51	10376.00
786.95	10420.00
787.40	10360.00
787.84	10195.00
788.28	10256.00
788.73	10205.00
789.17	10009.00
789.61	9899.00
790.05	9964.00
790.50	9843.00
790.94	9892.00
791.38	9967.00
791.82	9856.00
792.27	9813.00
792.71	9878.00
793.15	10071.00
793.59	9941.00
794.04	9915.00
794.48	9853.00
794.92	9796.00
795.36	9693.00
795.81	9672.00
796.25	9565.00
796.69	9656.00
797.13	9758.00
797.57	9765.00
798.02	9795.00
798.46	10025.00
798.90	9869.00
799.34	9695.00
799.79	9837.00
800.23	9569.00
800.67	9510.00
801.11	9488.00
801.55	9377.00
801.99	9444.00
802.44	9529.00
802.88	9588.00
803.32	9624.00
803.76	9548.00
804.20	9601.00
804.64	9598.00
805.09	9636.00
805.53	9726.00
805.97	9604.00
806.41	9406.00
806.85	9447.00
807.29	9352.00
807.74	9249.00
808.18	9259.00
808.62	9267.00
809.06	9246.00
809.50	9210.00
809.94	9288.00
810.38	9293.00
810.82	9313.00
811.27	9421.00
811.71	9071.00
812.15	8927.00
812.59	8813.00
813.03	8637.00
813.47	8507.00
813.91	8253.00
814.35	8205.00
814.79	8111.00
815.23	8006.00
815.67	7913.00
816.12	7931.00
816.56	7899.00
817.00	8021.00
817.44	7997.00
817.88	8098.00
818.32	7892.00
818.76	8053.00
819.20	7963.00
819.64	8113.00
820.08	8205.00
820.52	8281.00
820.96	8425.00
821.40	8220.00
821.84	8193.00
822.28	7759.00
822.72	7782.00
823.16	7733.00
823.60	7982.00
824.04	8430.00
824.48	8577.00
824.92	8551.00
825.36	8498.00
825.80	8341.00
826.24	8364.00
826.68	8181.00
827.12	8237.00
827.56	8146.00
828.00	8161.00
828.44	8173.00
828.88	8361.00
829.32	8295.00
829.76	8260.00
830.20	8517.00
830.64	8449.00
831.08	8425.00
831.52	8331.00
831.96	8199.00
832.40	8001.00
832.84	8176.00
833.28	8126.00
833.72	8374.00
834.16	8435.00
834.60	8579.00
835.04	8652.00
835.48	8714.00
835.91	8724.00
836.35	8683.00
836.79	8652.00
837.23	8607.00
837.67	8511.00
838.11	8469.00
838.55	8569.00
838.99	8440.00
839.43	8599.00
839.87	8718.00
840.30	8646.00
840.74	8840.00
841.18	8761.00
841.62	8787.00
842.06	8836.00
842.50	8835.00
842.94	8712.00
843.38	8645.00
843.81	8563.00
844.25	8534.00
844.69	8452.00
845.13	8465.00
845.57	8507.00
846.01	8555.00
846.45	8565.00
846.88	8583.00
847.32	8722.00
847.76	8736.00
848.20	8765.00
848.64	8761.00
849.08	8624.00
849.51	8705.00
849.95	8479.00
850.39	8436.00
850.83	8644.00
851.27	8447.00
851.70	8385.00
852.14	8349.00
852.58	8293.00
853.02	8057.00
853.46	7915.00
853.89	7835.00
854.33	7874.00
854.77	8117.00
855.21	8417.00
855.65	8673.00
856.08	8804.00
856.52	8672.00
856.96	8699.00
857.40	8545.00
857.83	8403.00
858.27	8411.00
858.71	8203.00
859.15	8304.00
859.58	8382.00
860.02	8356.00
860.46	8409.00
860.89	8539.00
861.33	8599.00
861.77	8631.00
862.21	8681.00
862.64	8673.00
863.08	8691.00
863.52	8642.00
863.95	8446.00
864.39	8473.00
864.83	8199.00
865.27	7876.00
865.70	7957.00
866.14	7738.00
866.58	7883.00
867.01	8125.00
867.45	8332.00
867.89	8315.00
868.32	8485.00
868.76	8524.00
869.20	8595.00
869.63	8587.00
870.07	8541.00
870.51	8244.00
870.94	8201.00
871.38	8172.00
871.82	8006.00
872.25	8005.00
872.69	8015.00
873.13	8074.00
873.56	8104.00
874.00	8195.00
874.43	8199.00
874.87	8291.00
875.31	8424.00
875.74	8341.00
876.18	8428.00
876.61	8396.00
877.05	8374.00
877.49	8317.00
877.92	8214.00
878.36	8142.00
878.79	7963.00
879.23	7977.00
879.67	7838.00
880.10	7764.00
880.54	7866.00
880.97	7871.00
881.41	8118.00
881.84	8261.00
882.28	8259.00
882.72	8431.00
883.15	8416.00
883.59	8421.00
884.02	8411.00
884.46	8465.00
884.89	8324.00
885.33	8224.00
885.76	7931.00
886.20	7836.00
886.63	7915.00
887.07	7705.00
887.50	7739.00
887.94	7793.00
888.37	7890.00
888.81	8062.00
889.24	7927.00
889.68	8133.00
890.11	7990.00
890.55	8157.00
890.98	8281.00
891.42	8209.00
891.85	8190.00
892.29	8083.00
892.72	7895.00
893.16	7725.00
893.59	7631.00
894.03	7427.00
894.46	7323.00
894.90	7125.00
895.33	6873.00
895.77	6929.00
896.20	6874.00
896.63	6960.00
897.07	6861.00
897.50	6833.00
897.94	6963.00
898.37	7183.00
898.81	6807.00
899.24	6815.00
899.68	6989.00
900.11	6977.00
900.54	6836.00
900.98	6707.00
901.41	6854.00
901.85	6809.00
902.28	6799.00
902.71	6816.00
903.15	7004.00
903.58	7134.00
904.02	7153.00
904.45	7098.00
904.88	7098.00
905.32	6989.00
905.75	7095.00
906.18	6910.00
906.62	6903.00
907.05	6843.00
907.48	6786.00
907.92	6815.00
908.35	6835.00
908.79	6651.00
909.22	6607.00
909.65	6660.00
910.09	6651.00
910.52	6641.00
910.95	6525.00
911.38	6559.00
911.82	6452.00
912.25	6577.00
912.68	6605.00
913.12	6602.00
913.55	6574.00
913.98	6762.00
914.42	6851.00
914.85	6982.00
915.28	6693.00
915.72	6725.00
916.15	6574.00
916.58	6707.00
917.01	6467.00
917.45	6423.00
917.88	6449.00
918.31	6585.00
918.74	6732.00
919.18	6867.00
919.61	6877.00
920.04	6843.00
920.47	7043.00
920.91	6981.00
921.34	6957.00
921.77	6960.00
922.20	6979.00
922.64	7085.00
923.07	6981.00
923.50	6879.00
923.93	6775.00
924.37	6771.00
924.80	6709.00
925.23	6707.00
925.66	6601.00
926.09	6326.00
926.53	6313.00
926.96	6104.00
927.39	6012.00
927.82	5763.00
928.25	5612.00
928.69	5688.00
929.12	5558.00
929.55	5374.00
929.98	5349.00
930.41	5074.00
930.84	5018.00
931.28	4831.00
931.71	4677.00
932.14	4575.00
932.57	4507.00
933.00	4359.00
933.43	4295.00
933.86	4248.00
934.30	4110.00
934.73	4315.00
935.16	4164.00
935.59	4123.00
936.02	4165.00
936.45	4215.00
936.88	4129.00
937.31	4300.00
937.75	4362.00
938.18	4428.00
938.61	4575.00
939.04	4597.00
939.47	4568.00
939.90	4515.00
940.33	4529.00
940.76	4297.00
941.19	4288.00
941.62	4206.00
942.05	4139.00
942.48	4093.00
942.91	3998.00
943.35	4073.00
943.78	4053.00
944.21	4017.00
944.64	4144.00
945.07	4150.00
945.50	4142.00
945.93	4222.00
946.36	4260.00
946.79	4240.00
947.22	4342.00
947.65	4314.00
948.08	4172.00
948.51	4316.00
948.94	4370.00
949.37	4398.00
949.80	4294.00
950.23	4265.00
950.66	4269.00
951.09	4348.00
951.52	4221.00
951.95	4281.00
952.38	4342.00
952.81	4509.00
953.24	4461.00
953.67	4489.00
954.10	4472.00
954.53	4559.00
954.96	4548.00
955.39	4596.00
955.82	4709.00
956.25	4611.00
956.68	4773.00
957.11	4701.00
957.53	4661.00
957.96	4695.00
958.39	4578.00
958.82	4498.00
959.25	4623.00
959.68	4599.00
960.11	4699.00
960.54	4805.00
960.97	4834.00
961.40	4944.00
961.83	4935.00
962.26	4936.00
962.68	5091.00
963.11	5101.00
963.54	5170.00
963.97	5153.00
964.40	5153.00
964.83	5284.00
965.26	5241.00
965.69	5233.00
966.11	5217.00
966.54	5161.00
966.97	5343.00
967.40	5395.00
967.83	5519.00
968.26	5455.00
968.69	5405.00
969.11	5426.00
969.54	5291.00
969.97	5399.00
970.40	5489.00
970.83	5458.00
971.26	5467.00
971.68	5501.00
972.11	5445.00
972.54	5583.00
972.97	5534.00
973.40	5492.00
973.82	5468.00
974.25	5499.00
974.68	5377.00
975.11	5406.00
975.54	5336.00
975.96	5288.00
976.39	5272.00
976.82	5369.00
977.25	5325.00
977.67	5307.00
978.10	5320.00
978.53	5299.00
978.96	5449.00
979.38	5459.00
979.81	5491.00
980.24	5629.00
980.67	5708.00
981.09	5691.00
981.52	5693.00
981.95	5751.00
982.38	5755.00
982.80	5746.00
983.23	5901.00
983.66	5834.00
984.08	5759.00
984.51	5717.00
984.94	5776.00
985.37	5731.00
985.79	5640.00
986.22	5541.00
986.65	5513.00
987.07	5529.00
987.50	5591.00
987.93	5530.00
988.35	5555.00
988.78	5551.00
989.21	5608.00
989.63	5683.00
990.06	5611.00
990.49	5775.00
990.91	5830.00
991.34	5809.00
991.77	5821.00
992.19	5754.00
992.62	5760.00
993.05	5805.00
993.47	5776.00
993.90	5765.00
994.32	5661.00
994.75	5605.00
995.18	5508.00
995.60	5479.00
996.03	5450.00
996.45	5562.00
996.88	5465.00
997.31	5406.00
997.73	5453.00
998.16	5424.00
998.58	5575.00
999.01	5485.00
999.44	5561.00
999.86	5633.00
1000.29	5534.00
1000.71	5600.00
1001.14	5568.00
1001.56	5589.00
1001.99	5577.00
1002.41	5566.00
1002.84	5529.00
1003.27	5377.00
1003.69	5302.00
1004.12	5360.00
1004.54	5315.00
1004.97	5271.00
1005.39	5176.00
1005.82	5242.00
1006.24	5181.00
1006.67	5203.00
1007.09	5129.00
1007.52	5141.00
1007.94	5145.00
1008.37	5310.00
1008.79	5301.00
1009.22	5249.00
1009.64	5210.00
1010.07	5233.00
1010.49	5244.00
1010.92	5245.00
1011.34	5266.00
1011.77	5317.00
1012.19	5233.00
1012.62	5253.00
1013.04	5099.00
1013.46	5199.00
1013.89	5056.00
1014.31	5100.00
1014.74	5000.00
1015.16	4970.00
1015.59	4919.00
1016.01	4965.00
1016.44	4901.00
1016.86	5800.00
1017.28	4946.00
1017.71	4945.00
1018.13	5181.00
1018.56	5076.00
1018.98	5131.00
1019.40	5065.00
1019.83	5146.00
1020.25	5202.00
1020.68	5147.00
1021.10	5243.00
1021.52	5183.00
1021.95	5403.00
1022.37	5207.00
1022.79	5246.00
1023.22	5157.00
1023.64	5153.00
1024.07	5161.00
1024.49	5155.00
1024.91	4999.00
1025.34	4980.00
1025.76	5127.00
1026.18	4963.00
1026.61	4953.00
1027.03	4932.00
1027.45	4935.00
1027.88	4940.00
1028.30	5088.00
1028.72	5044.00
1029.15	4969.00
1029.57	5027.00
1029.99	5106.00
1030.41	4987.00
1030.84	5096.00
1031.26	5027.00
1031.68	5003.00
1032.11	5085.00
1032.53	4929.00
1032.95	4919.00
1033.37	4936.00
1033.80	4931.00
1034.22	4824.00
1034.64	4870.00
1035.06	4766.00
1035.49	4757.00
1035.91	4700.00
1036.33	4644.00
1036.75	4729.00
1037.18	4756.00
1037.60	4655.00
1038.02	4727.00
1038.44	4767.00
1038.87	4659.00
1039.29	4647.00
1039.71	4741.00
1040.13	4708.00
1040.55	4745.00
1040.98	4693.00
1041.40	4681.00
1041.82	4769.00
1042.24	4641.00
1042.66	4664.00
1043.09	4573.00
1043.51	4589.00
1043.93	4482.00
1044.35	4482.00
1044.77	4512.00
1045.20	4493.00
1045.62	4401.00
1046.04	4438.00
1046.46	4427.00
1046.88	4387.00
1047.30	4401.00
1047.72	4341.00
1048.15	4424.00
1048.57	4343.00
1048.99	4352.00
1049.41	4378.00
1049.83	4402.00
1050.25	4415.00
1050.67	4395.00
1051.09	4371.00
1051.52	4361.00
1051.94	4245.00
1052.36	4257.00
1052.78	4195.00
1053.20	4259.00
1053.62	4253.00
1054.04	4266.00
1054.46	4303.00
1054.88	4338.00
1055.30	4253.00
1055.72	4272.00
1056.14	4186.00
1056.57	4345.00
1056.99	4119.00
1057.41	4121.00
1057.83	4152.00
1058.25	4099.00
1058.67	4105.00
1059.09	4083.00
1059.51	4059.00
1059.93	4045.00
1060.35	4045.00
1060.77	4116.00
1061.19	4111.00
1061.61	4014.00
1062.03	4012.00
1062.45	3967.00
1062.87	4012.00
1063.29	4052.00
1063.71	3977.00
1064.13	3964.00
1064.55	3901.00
1064.97	4016.00
1065.39	3925.00
1065.81	3988.00
1066.23	3941.00
1066.65	3931.00
1067.07	4017.00
1067.49	3959.00
1067.91	3873.00
1068.33	3867.00
1068.75	3909.00
1069.17	3925.00
1069.59	3915.00
1070.00	3879.00
1070.42	3858.00
1070.84	3808.00
1071.26	3791.00
1071.68	3767.00
1072.10	3864.00
1072.52	3798.00
1072.94	3801.00
1073.36	3775.00
1073.78	3732.00
1074.20	3835.00
1074.62	3793.00
1075.03	3764.00
1075.45	3804.00
1075.87	3833.00
1076.29	3764.00
1076.71	3817.00
1077.13	3826.00
1077.55	3695.00
1077.97	3756.00
1078.38	3728.00
1078.80	3749.00
1079.22	3773.00
1079.64	3755.00
1080.06	3703.00
1080.48	3697.00
1080.89	3703.00
1081.31	3657.00
1081.73	3667.00
1082.15	3699.00
1082.57	3713.00
1082.99	3661.00
1083.40	3639.00
1083.82	3701.00
1084.24	3625.00
1084.66	3636.00
1085.08	3653.00
1085.49	3590.00
1085.91	3684.00
1086.33	4935.00
1086.75	3613.00
1087.17	3584.00
1087.58	3630.00
1088.00	3612.00
1088.42	3669.00
1088.84	3599.00
1089.25	3558.00
1089.67	3590.00
1090.09	3584.00
1090.51	3553.00
1090.92	3645.00
1091.34	3557.00
1091.76	3543.00
1092.18	3524.00
1092.59	3494.00
1093.01	3519.00
1093.43	3517.00
1093.84	3487.00
1094.26	3502.00
1094.68	3541.00
1095.10	3453.00
1095.51	3518.00
1095.93	3439.00
1096.35	3506.00
1096.76	3504.00
1097.18	3513.00
1097.60	3440.00
1098.01	3476.00
1098.43	3437.00
1098.85	3449.00
1099.26	3445.00
1099.68	3436.00
1100.10	3420.00
1100.51	3422.00
1100.93	3403.00
1101.35	3427.00
1101.76	3421.00
1102.18	3917.00
1102.60	3446.00
1103.01	3319.00
1103.43	3377.00
1103.84	3373.00
1104.26	3380.00
1104.68	3429.00
1105.09	3328.00
1105.51	3360.00
1105.92	3423.00
1106.34	3327.00
1106.76	3366.00
1107.17	3363.00
1107.59	3381.00
1108.00	3291.00
1108.42	3324.00
1108.83	3288.00
1109.25	3297.00
1109.67	3290.00
1110.08	3325.00
1110.50	3249.00
1110.91	3312.00
1111.33	3267.00
1111.74	3263.00
1112.16	3295.00
1112.57	3305.00
1112.99	3245.00
1113.41	3244.00
1113.82	3277.00
1114.24	3277.00
1114.65	3239.00
1115.07	3185.00
1115.48	3101.00
1115.90	2185.00
1116.31	2204.00
1116.73	2214.00
1117.14	2210.00
>>>>>End Processed Spectral Data<<<<<
