SpectraSuite Data File
++++++++++++++++++++++++++++++++++++
Date: Tue May 29 13:11:04 EEST 2018
User: CanSEE
Dark Spectrum Present: No
Reference Spectrum Present: No
Number of Sampled Component Spectra: 1
Spectrometers: MAYP11278
Integration Time (usec): 230000 (MAYP11278)
Spectra Averaged: 1 (MAYP11278)
Boxcar Smoothing: 0 (MAYP11278)
Correct for Electrical Dark: No (MAYP11278)
Strobe/Lamp Enabled: No (MAYP11278)
Correct for Detector Non-linearity: No (MAYP11278)
Correct for Stray Light: No (MAYP11278)
Number of Pixels in Processed Spectrum: 2068
>>>>>Begin Processed Spectral Data<<<<<
187.82	2336.00
188.30	2238.00
188.78	2209.00
189.26	2212.00
189.73	3203.00
190.21	3299.00
190.69	3393.00
191.17	3425.00
191.64	3480.00
192.12	3383.00
192.60	3394.00
193.07	3358.00
193.55	3421.00
194.03	3362.00
194.51	3422.00
194.98	3405.00
195.46	3470.00
195.94	3421.00
196.42	3417.00
196.89	3529.00
197.37	3464.00
197.85	3411.00
198.32	3405.00
198.80	3389.00
199.28	3402.00
199.76	3467.00
200.23	3417.00
200.71	3427.00
201.19	3447.00
201.66	3433.00
202.14	3426.00
202.62	3376.00
203.09	3429.00
203.57	3387.00
204.05	3459.00
204.53	3483.00
205.00	3395.00
205.48	3415.00
205.96	3479.00
206.43	3420.00
206.91	3450.00
207.39	3586.00
207.86	3413.00
208.34	3465.00
208.82	3438.00
209.29	3462.00
209.77	3472.00
210.25	3416.00
210.72	3435.00
211.20	3458.00
211.68	3437.00
212.15	3417.00
212.63	3512.00
213.11	3471.00
213.58	3401.00
214.06	3522.00
214.53	3474.00
215.01	3466.00
215.49	3468.00
215.96	3431.00
216.44	3505.00
216.92	3466.00
217.39	3410.00
217.87	3466.00
218.35	3498.00
218.82	3373.00
219.30	3442.00
219.77	3393.00
220.25	3449.00
220.73	3538.00
221.20	3411.00
221.68	3461.00
222.15	3413.00
222.63	3472.00
223.11	3433.00
223.58	3483.00
224.06	3429.00
224.53	3423.00
225.01	3391.00
225.49	3485.00
225.96	3413.00
226.44	3429.00
226.91	3495.00
227.39	3456.00
227.87	3480.00
228.34	3476.00
228.82	3495.00
229.29	3466.00
229.77	3436.00
230.24	3450.00
230.72	3486.00
231.20	3495.00
231.67	3459.00
232.15	3425.00
232.62	3387.00
233.10	3472.00
233.57	3476.00
234.05	3595.00
234.53	3473.00
235.00	3396.00
235.48	3406.00
235.95	3447.00
236.43	3500.00
236.90	3496.00
237.38	3413.00
237.85	3437.00
238.33	3427.00
238.80	3469.00
239.28	3429.00
239.75	3404.00
240.23	3530.00
240.71	3500.00
241.18	3431.00
241.66	3453.00
242.13	3522.00
242.61	3471.00
243.08	3436.00
243.56	3431.00
244.03	3427.00
244.51	3509.00
244.98	3429.00
245.46	3484.00
245.93	5217.00
246.41	3393.00
246.88	3431.00
247.36	3415.00
247.83	3485.00
248.31	3477.00
248.78	3435.00
249.26	3491.00
249.73	3513.00
250.21	3468.00
250.68	3484.00
251.16	3468.00
251.63	3563.00
252.10	3548.00
252.58	3437.00
253.05	3529.00
253.53	3466.00
254.00	3435.00
254.48	3481.00
254.95	3446.00
255.43	3538.00
255.90	3436.00
256.38	3504.00
256.85	3478.00
257.33	3556.00
257.80	3580.00
258.27	3466.00
258.75	3467.00
259.22	3435.00
259.70	3443.00
260.17	3528.00
260.65	3479.00
261.12	3415.00
261.59	3530.00
262.07	3419.00
262.54	3486.00
263.02	3496.00
263.49	3389.00
263.97	3536.00
264.44	3541.00
264.91	3465.00
265.39	3454.00
265.86	3484.00
266.34	3504.00
266.81	3433.00
267.28	3470.00
267.76	3485.00
268.23	3427.00
268.71	3411.00
269.18	3424.00
269.65	3419.00
270.13	3483.00
270.60	3521.00
271.08	3476.00
271.55	3516.00
272.02	3425.00
272.50	3475.00
272.97	3411.00
273.44	3474.00
273.92	3570.00
274.39	3438.00
274.87	3489.00
275.34	3452.00
275.81	3449.00
276.29	3465.00
276.76	3474.00
277.23	3341.00
277.71	3378.00
278.18	3340.00
278.65	3533.00
279.13	3377.00
279.60	3425.00
280.07	3705.00
280.55	3677.00
281.02	3768.00
281.50	3501.00
281.97	3620.00
282.44	3497.00
282.91	3464.00
283.39	3506.00
283.86	3478.00
284.33	3441.00
284.81	3553.00
285.28	3495.00
285.75	3492.00
286.23	3518.00
286.70	3454.00
287.17	3513.00
287.65	3554.00
288.12	3478.00
288.59	3493.00
289.07	3371.00
289.54	3555.00
290.01	3464.00
290.48	3505.00
290.96	3487.00
291.43	3490.00
291.90	3597.00
292.38	3494.00
292.85	3535.00
293.32	3465.00
293.79	3510.00
294.27	3497.00
294.74	3456.00
295.21	3515.00
295.69	3468.00
296.16	3545.00
296.63	3542.00
297.10	3504.00
297.58	3478.00
298.05	3530.00
298.52	3448.00
298.99	3575.00
299.47	3522.00
299.94	3530.00
300.41	3486.00
300.88	3533.00
301.36	3506.00
301.83	3537.00
302.30	3414.00
302.77	3490.00
303.25	3554.00
303.72	3447.00
304.19	3501.00
304.66	3467.00
305.13	3499.00
305.61	3503.00
306.08	3503.00
306.55	3494.00
307.02	3467.00
307.49	3498.00
307.97	3499.00
308.44	3495.00
308.91	3476.00
309.38	3489.00
309.86	3534.00
310.33	3499.00
310.80	3471.00
311.27	3495.00
311.74	3496.00
312.21	3516.00
312.69	3595.00
313.16	3474.00
313.63	3502.00
314.10	3492.00
314.57	3455.00
315.05	3498.00
315.52	3566.00
315.99	3531.00
316.46	3548.00
316.93	3490.00
317.40	3538.00
317.88	3627.00
318.35	3501.00
318.82	3517.00
319.29	3445.00
319.76	3567.00
320.23	3611.00
320.70	3542.00
321.18	3503.00
321.65	3455.00
322.12	3488.00
322.59	3621.00
323.06	3482.00
323.53	3636.00
324.00	3441.00
324.48	3563.00
324.95	3481.00
325.42	3492.00
325.89	3506.00
326.36	3490.00
326.83	3523.00
327.30	3551.00
327.77	3543.00
328.24	3567.00
328.72	3535.00
329.19	3510.00
329.66	3529.00
330.13	3512.00
330.60	3519.00
331.07	3524.00
331.54	3603.00
332.01	3507.00
332.48	3599.00
332.95	3559.00
333.43	3552.00
333.90	3629.00
334.37	3550.00
334.84	3561.00
335.31	3705.00
335.78	3502.00
336.25	3505.00
336.72	3510.00
337.19	3536.00
337.66	3537.00
338.13	3499.00
338.60	3607.00
339.07	3543.00
339.54	3470.00
340.01	3481.00
340.49	3487.00
340.96	3584.00
341.43	3593.00
341.90	3472.00
342.37	3525.00
342.84	3544.00
343.31	3559.00
343.78	3466.00
344.25	3512.00
344.72	3514.00
345.19	3521.00
345.66	3543.00
346.13	3538.00
346.60	3515.00
347.07	3624.00
347.54	3478.00
348.01	3562.00
348.48	3521.00
348.95	3485.00
349.42	3537.00
349.89	3579.00
350.36	3487.00
350.83	3524.00
351.30	3526.00
351.77	3629.00
352.24	3554.00
352.71	3580.00
353.18	3557.00
353.65	3547.00
354.12	3554.00
354.59	3565.00
355.06	3565.00
355.53	3601.00
356.00	3483.00
356.47	3609.00
356.94	3484.00
357.41	3709.00
357.88	3574.00
358.35	3497.00
358.82	3516.00
359.28	3506.00
359.75	3541.00
360.22	3582.00
360.69	3607.00
361.16	3484.00
361.63	3560.00
362.10	3537.00
362.57	3525.00
363.04	3547.00
363.51	3632.00
363.98	3538.00
364.45	3487.00
364.92	3543.00
365.39	3499.00
365.86	3513.00
366.32	3542.00
366.79	3555.00
367.26	4443.00
367.73	3897.00
368.20	3511.00
368.67	3561.00
369.14	3517.00
369.61	3609.00
370.08	3600.00
370.55	3518.00
371.02	4417.00
371.48	3513.00
371.95	3523.00
372.42	3455.00
372.89	3532.00
373.36	3521.00
373.83	3498.00
374.30	3504.00
374.77	3532.00
375.23	3473.00
375.70	3616.00
376.17	3495.00
376.64	3459.00
377.11	3488.00
377.58	3520.00
378.05	3511.00
378.51	3550.00
378.98	3545.00
379.45	3454.00
379.92	3562.00
380.39	3658.00
380.86	3557.00
381.33	3618.00
381.79	3577.00
382.26	3465.00
382.73	3556.00
383.20	3506.00
383.67	3588.00
384.14	3536.00
384.60	3802.00
385.07	3520.00
385.54	3525.00
386.01	3514.00
386.48	3609.00
386.94	3511.00
387.41	3476.00
387.88	3554.00
388.35	3561.00
388.82	3577.00
389.28	3486.00
389.75	3577.00
390.22	3554.00
390.69	3546.00
391.16	3527.00
391.62	3545.00
392.09	3522.00
392.56	3513.00
393.03	3518.00
393.50	3648.00
393.96	3533.00
394.43	3601.00
394.90	3522.00
395.37	3598.00
395.83	3745.00
396.30	3489.00
396.77	3571.00
397.24	3593.00
397.70	3503.00
398.17	3549.00
398.64	3522.00
399.11	3487.00
399.57	3570.00
400.04	3477.00
400.51	3535.00
400.98	3520.00
401.44	3620.00
401.91	3554.00
402.38	3558.00
402.84	3529.00
403.31	3629.00
403.78	3512.00
404.25	3639.00
404.71	3652.00
405.18	3592.00
405.65	3489.00
406.12	3556.00
406.58	3559.00
407.05	3627.00
407.52	3569.00
407.98	4083.00
408.45	3577.00
408.92	3523.00
409.38	3624.00
409.85	3541.00
410.32	3630.00
410.78	3502.00
411.25	3655.00
411.72	3522.00
412.18	3479.00
412.65	3580.00
413.12	3551.00
413.59	3606.00
414.05	3614.00
414.52	3634.00
414.98	3567.00
415.45	3645.00
415.92	3587.00
416.38	3592.00
416.85	3646.00
417.32	3598.00
417.78	3579.00
418.25	3583.00
418.72	3609.00
419.18	3636.00
419.65	3571.00
420.12	3624.00
420.58	3587.00
421.05	3608.00
421.51	3582.00
421.98	3666.00
422.45	3566.00
422.91	3604.00
423.38	3640.00
423.85	3637.00
424.31	3583.00
424.78	3643.00
425.24	3618.00
425.71	3687.00
426.18	3569.00
426.64	3712.00
427.11	3660.00
427.57	3681.00
428.04	3607.00
428.51	3673.00
428.97	3635.00
429.44	3615.00
429.90	3623.00
430.37	3721.00
430.83	3604.00
431.30	3622.00
431.77	3715.00
432.23	3729.00
432.70	3647.00
433.16	3629.00
433.63	3671.00
434.09	3637.00
434.56	3714.00
435.03	3644.00
435.49	3722.00
435.96	3714.00
436.42	3633.00
436.89	3685.00
437.35	3695.00
437.82	3705.00
438.28	3667.00
438.75	3663.00
439.21	3859.00
439.68	3744.00
440.14	3723.00
440.61	3709.00
441.07	3687.00
441.54	3694.00
442.00	3880.00
442.47	3693.00
442.94	3735.00
443.40	3717.00
443.87	3657.00
444.33	3809.00
444.80	3718.00
445.26	3719.00
445.73	3730.00
446.19	3781.00
446.65	3721.00
447.12	3759.00
447.58	3713.00
448.05	3677.00
448.51	3804.00
448.98	3762.00
449.44	3754.00
449.91	3731.00
450.37	3739.00
450.84	3757.00
451.30	3815.00
451.77	3852.00
452.23	3717.00
452.70	3839.00
453.16	3689.00
453.62	3759.00
454.09	3812.00
454.55	3778.00
455.02	3713.00
455.48	3769.00
455.95	3813.00
456.41	3747.00
456.88	3844.00
457.34	3728.00
457.80	3762.00
458.27	3722.00
458.73	3775.00
459.20	3786.00
459.66	3782.00
460.13	3707.00
460.59	3712.00
461.05	3808.00
461.52	3729.00
461.98	3702.00
462.45	3699.00
462.91	3800.00
463.37	3680.00
463.84	3680.00
464.30	3704.00
464.76	3620.00
465.23	3691.00
465.69	3765.00
466.16	3697.00
466.62	3709.00
467.08	3729.00
467.55	3680.00
468.01	3690.00
468.48	3688.00
468.94	3696.00
469.40	3611.00
469.87	3679.00
470.33	3677.00
470.79	3651.00
471.26	3662.00
471.72	3667.00
472.18	3650.00
472.65	3623.00
473.11	3723.00
473.57	3651.00
474.04	3651.00
474.50	3622.00
474.96	3599.00
475.43	3685.00
475.89	3635.00
476.35	3667.00
476.82	3677.00
477.28	3663.00
477.74	3714.00
478.21	3680.00
478.67	3694.00
479.13	3651.00
479.59	3733.00
480.06	3677.00
480.52	3677.00
480.98	3667.00
481.45	3649.00
481.91	3629.00
482.37	3616.00
482.84	3637.00
483.30	3603.00
483.76	3612.00
484.22	3732.00
484.69	3641.00
485.15	3601.00
485.61	3496.00
486.07	3575.00
486.54	3520.00
487.00	3661.00
487.46	3526.00
487.92	3587.00
488.39	3633.00
488.85	3640.00
489.31	3644.00
489.77	3693.00
490.24	3587.00
490.70	3673.00
491.16	3577.00
491.62	3621.00
492.09	3553.00
492.55	3733.00
493.01	3679.00
493.47	3687.00
493.94	3630.00
494.40	3627.00
494.86	3646.00
495.32	3600.00
495.78	3695.00
496.25	3610.00
496.71	3713.00
497.17	3787.00
497.63	3776.00
498.09	3637.00
498.56	3703.00
499.02	3672.00
499.48	3823.00
499.94	3710.00
500.40	3687.00
500.87	3727.00
501.33	3699.00
501.79	3737.00
502.25	3773.00
502.71	4087.00
503.17	3758.00
503.64	3746.00
504.10	3783.00
504.56	3894.00
505.02	3838.00
505.48	3812.00
505.94	3817.00
506.40	3856.00
506.87	3819.00
507.33	3866.00
507.79	3881.00
508.25	3865.00
508.71	3884.00
509.17	3893.00
509.63	3917.00
510.10	3913.00
510.56	3951.00
511.02	4030.00
511.48	4079.00
511.94	3957.00
512.40	4009.00
512.86	4014.00
513.32	4117.00
513.78	3995.00
514.25	4123.00
514.71	4783.00
515.17	4077.00
515.63	4213.00
516.09	4157.00
516.55	4177.00
517.01	4267.00
517.47	4242.00
517.93	4219.00
518.39	4429.00
518.85	4348.00
519.32	4384.00
519.78	4399.00
520.24	4477.00
520.70	4518.00
521.16	4603.00
521.62	4643.00
522.08	4626.00
522.54	4665.00
523.00	4786.00
523.46	4741.00
523.92	4778.00
524.38	4939.00
524.84	4865.00
525.30	4872.00
525.76	4891.00
526.22	4814.00
526.68	4760.00
527.14	4902.00
527.60	4929.00
528.06	5037.00
528.52	5057.00
528.98	5154.00
529.44	5153.00
529.90	5117.00
530.36	5243.00
530.82	5215.00
531.28	5267.00
531.74	5221.00
532.20	5226.00
532.66	5155.00
533.12	5249.00
533.58	5273.00
534.04	5265.00
534.50	5315.00
534.96	5373.00
535.42	5479.00
535.88	5443.00
536.34	5357.00
536.80	5364.00
537.26	5444.00
537.72	5417.00
538.18	5448.00
538.64	5562.00
539.10	5487.00
539.56	5655.00
540.02	5324.00
540.48	5471.00
540.94	5450.00
541.40	5480.00
541.86	5628.00
542.32	5491.00
542.78	5523.00
543.24	5653.00
543.69	5544.00
544.15	5660.00
544.61	5587.00
545.07	5546.00
545.53	5615.00
545.99	5621.00
546.45	5628.00
546.91	5683.00
547.37	5659.00
547.83	5669.00
548.29	5643.00
548.74	5667.00
549.20	5705.00
549.66	5835.00
550.12	5637.00
550.58	5656.00
551.04	5768.00
551.50	5758.00
551.96	5795.00
552.42	5716.00
552.87	5622.00
553.33	5743.00
553.79	5711.00
554.25	5691.00
554.71	5845.00
555.17	5761.00
555.63	5809.00
556.08	5732.00
556.54	5710.00
557.00	5624.00
557.46	5663.00
557.92	5747.00
558.38	5601.00
558.83	5523.00
559.29	5539.00
559.75	5514.00
560.21	5567.00
560.67	5638.00
561.13	5596.00
561.58	5572.00
562.04	5535.00
562.50	5576.00
562.96	5542.00
563.42	5588.00
563.87	5465.00
564.33	5525.00
564.79	5503.00
565.25	5476.00
565.71	5392.00
566.16	5456.00
566.62	5342.00
567.08	5393.00
567.54	5358.00
568.00	5283.00
568.45	5306.00
568.91	5260.00
569.37	5280.00
569.83	5255.00
570.28	5141.00
570.74	5169.00
571.20	5156.00
571.66	5139.00
572.11	5168.00
572.57	5165.00
573.03	5169.00
573.49	5058.00
573.94	5143.00
574.40	5139.00
574.86	5028.00
575.32	4969.00
575.77	4963.00
576.23	4865.00
576.69	5046.00
577.15	4930.00
577.60	4910.00
578.06	4852.00
578.52	4935.00
578.97	4866.00
579.43	4861.00
579.89	4931.00
580.34	4856.00
580.80	4835.00
581.26	4860.00
581.72	4879.00
582.17	4851.00
582.63	4729.00
583.09	4854.00
583.54	4851.00
584.00	4781.00
584.46	4779.00
584.91	4745.00
585.37	4860.00
585.83	4723.00
586.28	4738.00
586.74	4742.00
587.20	4720.00
587.65	4733.00
588.11	4674.00
588.57	4573.00
589.02	4531.00
589.48	4456.00
589.94	4587.00
590.39	4657.00
590.85	4555.00
591.30	4624.00
591.76	4693.00
592.22	4552.00
592.67	4619.00
593.13	4539.00
593.59	4597.00
594.04	4595.00
594.50	4532.00
594.95	4627.00
595.41	4573.00
595.87	4537.00
596.32	4608.00
596.78	4596.00
597.23	4548.00
597.69	4531.00
598.15	4493.00
598.60	4511.00
599.06	4610.00
599.51	4531.00
599.97	4543.00
600.43	4601.00
600.88	4534.00
601.34	4501.00
601.79	4453.00
602.25	4600.00
602.70	4520.00
603.16	4557.00
603.61	4463.00
604.07	4471.00
604.53	4565.00
604.98	4461.00
605.44	4510.00
605.89	4464.00
606.35	4405.00
606.80	4473.00
607.26	4460.00
607.71	4473.00
608.17	4466.00
608.62	4443.00
609.08	4521.00
609.53	4439.00
609.99	4374.00
610.44	4364.00
610.90	4352.00
611.35	4322.00
611.81	4398.00
612.26	4384.00
612.72	4295.00
613.17	4463.00
613.63	4266.00
614.08	4260.00
614.54	4234.00
614.99	4216.00
615.45	4244.00
615.90	4257.00
616.36	4160.00
616.81	4207.00
617.27	4251.00
617.72	4298.00
618.18	4257.00
618.63	4215.00
619.09	4191.00
619.54	4235.00
619.99	4194.00
620.45	4265.00
620.90	4266.00
621.36	4196.00
621.81	4252.00
622.27	4257.00
622.72	4201.00
623.18	4127.00
623.63	4163.00
624.08	4246.00
624.54	4143.00
624.99	4155.00
625.45	4150.00
625.90	4104.00
626.35	4147.00
626.81	4133.00
627.26	4096.00
627.72	4158.00
628.17	4221.00
628.62	4070.00
629.08	4146.00
629.53	4075.00
629.99	4055.00
630.44	4147.00
630.89	4147.00
631.35	4172.00
631.80	4107.00
632.26	4172.00
632.71	4117.00
633.16	4092.00
633.62	4051.00
634.07	4099.00
634.52	4063.00
634.98	4087.00
635.43	4088.00
635.88	4040.00
636.34	4080.00
636.79	4053.00
637.24	4062.00
637.70	4111.00
638.15	4127.00
638.60	4081.00
639.06	4004.00
639.51	3981.00
639.96	3982.00
640.42	4066.00
640.87	4059.00
641.32	3961.00
641.78	4006.00
642.23	3962.00
642.68	3935.00
643.14	3937.00
643.59	4009.00
644.04	3908.00
644.49	3865.00
644.95	3941.00
645.40	3868.00
645.85	3946.00
646.31	3907.00
646.76	3870.00
647.21	3911.00
647.66	3843.00
648.12	3848.00
648.57	3796.00
649.02	3868.00
649.47	3836.00
649.93	3988.00
650.38	3797.00
650.83	3787.00
651.28	3731.00
651.74	3778.00
652.19	3741.00
652.64	3758.00
653.09	3793.00
653.55	3740.00
654.00	3791.00
654.45	3719.00
654.90	3737.00
655.35	3671.00
655.81	3753.00
656.26	3601.00
656.71	3704.00
657.16	3751.00
657.62	3775.00
658.07	3663.00
658.52	3685.00
658.97	3673.00
659.42	3880.00
659.88	3667.00
660.33	3731.00
660.78	3714.00
661.23	3650.00
661.68	3665.00
662.13	3616.00
662.59	3580.00
663.04	3660.00
663.49	3575.00
663.94	3607.00
664.39	3623.00
664.84	3603.00
665.30	3646.00
665.75	3547.00
666.20	3584.00
666.65	3609.00
667.10	3750.00
667.55	3651.00
668.00	3562.00
668.46	3600.00
668.91	3555.00
669.36	3699.00
669.81	3472.00
670.26	3569.00
670.71	3587.00
671.16	3540.00
671.61	3651.00
672.06	3691.00
672.52	3554.00
672.97	3577.00
673.42	3633.00
673.87	3755.00
674.32	3557.00
674.77	3573.00
675.22	3457.00
675.67	3522.00
676.12	3524.00
676.57	3523.00
677.02	3524.00
677.47	3537.00
677.93	3677.00
678.38	3502.00
678.83	3501.00
679.28	3583.00
679.73	3551.00
680.18	3564.00
680.63	3524.00
681.08	3514.00
681.53	3447.00
681.98	3585.00
682.43	3586.00
682.88	3569.00
683.33	3620.00
683.78	3594.00
684.23	3617.00
684.68	3609.00
685.13	3591.00
685.58	3638.00
686.03	3610.00
686.48	3543.00
686.93	3523.00
687.38	3498.00
687.83	3621.00
688.28	3643.00
688.73	3810.00
689.18	3720.00
689.63	3646.00
690.08	3748.00
690.53	3746.00
690.98	3745.00
691.43	3846.00
691.88	3838.00
692.33	3940.00
692.78	4001.00
693.23	4052.00
693.68	4023.00
694.13	4101.00
694.58	4168.00
695.03	4412.00
695.48	4280.00
695.93	4397.00
696.38	4479.00
696.83	4467.00
697.28	4479.00
697.72	4573.00
698.17	4599.00
698.62	4707.00
699.07	4765.00
699.52	4784.00
699.97	4813.00
700.42	4974.00
700.87	5088.00
701.32	5248.00
701.77	5091.00
702.22	5249.00
702.67	5201.00
703.11	5295.00
703.56	5457.00
704.01	5503.00
704.46	5565.00
704.91	5731.00
705.36	5759.00
705.81	5781.00
706.26	5778.00
706.70	5838.00
707.15	5935.00
707.60	6017.00
708.05	6143.00
708.50	6173.00
708.95	6200.00
709.40	6243.00
709.84	6329.00
710.29	6341.00
710.74	6365.00
711.19	6483.00
711.64	6466.00
712.09	6592.00
712.53	6642.00
712.98	6825.00
713.43	6657.00
713.88	6813.00
714.33	6843.00
714.78	6926.00
715.22	6889.00
715.67	6919.00
716.12	6821.00
716.57	6681.00
717.02	6499.00
717.46	6339.00
717.91	6409.00
718.36	6444.00
718.81	6294.00
719.26	6333.00
719.70	6431.00
720.15	6434.00
720.60	6679.00
721.05	7027.00
721.49	7236.00
721.94	7366.00
722.39	7347.00
722.84	7192.00
723.28	7019.00
723.73	7122.00
724.18	6958.00
724.63	7168.00
725.07	7079.00
725.52	7263.00
725.97	7312.00
726.42	7308.00
726.86	7537.00
727.31	7323.00
727.76	7482.00
728.21	7600.00
728.65	7528.00
729.10	7553.00
729.55	7647.00
729.99	7775.00
730.44	7718.00
730.89	7757.00
731.33	8068.00
731.78	8110.00
732.23	8405.00
732.68	8436.00
733.12	8535.00
733.57	8636.00
734.02	8757.00
734.46	8772.00
734.91	8827.00
735.36	8840.00
735.80	9005.00
736.25	8890.00
736.70	8950.00
737.14	9067.00
737.59	9161.00
738.04	9127.00
738.48	9087.00
738.93	9096.00
739.37	9173.00
739.82	9336.00
740.27	9355.00
740.71	9277.00
741.16	9370.00
741.61	9382.00
742.05	9481.00
742.50	9517.00
742.94	9548.00
743.39	9518.00
743.84	9575.00
744.28	9663.00
744.73	9668.00
745.18	9793.00
745.62	9813.00
746.07	9761.00
746.51	9733.00
746.96	9727.00
747.40	9706.00
747.85	9742.00
748.30	9787.00
748.74	9647.00
749.19	9671.00
749.63	9872.00
750.08	9744.00
750.52	9749.00
750.97	9659.00
751.42	9694.00
751.86	9713.00
752.31	9714.00
752.75	9815.00
753.20	9573.00
753.64	9678.00
754.09	9710.00
754.53	9740.00
754.98	9690.00
755.42	9648.00
755.87	9699.00
756.31	9724.00
756.76	9574.00
757.20	9695.00
757.65	9439.00
758.09	9378.00
758.54	9245.00
758.98	8468.00
759.43	7119.00
759.87	5842.00
760.32	5043.00
760.76	5009.00
761.21	5606.00
761.65	6251.00
762.10	6358.00
762.54	6141.00
762.99	6015.00
763.43	6135.00
763.88	6308.00
764.32	6605.00
764.77	7048.00
765.21	7402.00
765.66	7712.00
766.10	8077.00
766.54	8265.00
766.99	8531.00
767.43	8738.00
767.88	8948.00
768.32	9136.00
768.77	9158.00
769.21	9383.00
769.66	9359.00
770.10	9523.00
770.54	9630.00
770.99	9495.00
771.43	9519.00
771.88	9573.00
772.32	9603.00
772.76	9373.00
773.21	9491.00
773.65	9454.00
774.10	9347.00
774.54	9427.00
774.98	9351.00
775.43	9542.00
775.87	9640.00
776.31	9514.00
776.76	9626.00
777.20	9546.00
777.65	9506.00
778.09	9454.00
778.53	9375.00
778.98	9455.00
779.42	9484.00
779.86	9470.00
780.31	9362.00
780.75	9405.00
781.19	9462.00
781.64	9448.00
782.08	9504.00
782.52	9376.00
782.97	9508.00
783.41	9336.00
783.85	9282.00
784.30	9257.00
784.74	9125.00
785.18	9180.00
785.63	9065.00
786.07	9289.00
786.51	9279.00
786.95	9210.00
787.40	9097.00
787.84	9107.00
788.28	9102.00
788.73	9083.00
789.17	9038.00
789.61	8885.00
790.05	8954.00
790.50	8799.00
790.94	8876.00
791.38	8965.00
791.82	8866.00
792.27	8837.00
792.71	8773.00
793.15	9039.00
793.59	8900.00
794.04	8744.00
794.48	8839.00
794.92	8779.00
795.36	8665.00
795.81	8694.00
796.25	8554.00
796.69	8637.00
797.13	8679.00
797.57	8798.00
798.02	8777.00
798.46	8887.00
798.90	8836.00
799.34	8688.00
799.79	8745.00
800.23	8586.00
800.67	8439.00
801.11	8466.00
801.55	8443.00
801.99	8477.00
802.44	8515.00
802.88	8491.00
803.32	8588.00
803.76	8553.00
804.20	8656.00
804.64	8507.00
805.09	8722.00
805.53	8724.00
805.97	8622.00
806.41	8576.00
806.85	8433.00
807.29	8407.00
807.74	8232.00
808.18	8266.00
808.62	8355.00
809.06	8329.00
809.50	8283.00
809.94	8273.00
810.38	8348.00
810.82	8327.00
811.27	8386.00
811.71	8100.00
812.15	8027.00
812.59	7879.00
813.03	7855.00
813.47	7583.00
813.91	7423.00
814.35	7437.00
814.79	7281.00
815.23	7249.00
815.67	7162.00
816.12	7179.00
816.56	7198.00
817.00	7220.00
817.44	7271.00
817.88	7342.00
818.32	7173.00
818.76	7227.00
819.20	7231.00
819.64	7337.00
820.08	7362.00
820.52	7440.00
820.96	7607.00
821.40	7474.00
821.84	7374.00
822.28	7021.00
822.72	6972.00
823.16	6940.00
823.60	7127.00
824.04	7551.00
824.48	7633.00
824.92	7621.00
825.36	7639.00
825.80	7500.00
826.24	7574.00
826.68	7383.00
827.12	7582.00
827.56	7350.00
828.00	7398.00
828.44	7379.00
828.88	7511.00
829.32	7501.00
829.76	7511.00
830.20	7693.00
830.64	7515.00
831.08	7529.00
831.52	7448.00
831.96	7487.00
832.40	7263.00
832.84	7340.00
833.28	7420.00
833.72	7542.00
834.16	7608.00
834.60	7703.00
835.04	7800.00
835.48	7793.00
835.91	7837.00
836.35	7845.00
836.79	7703.00
837.23	7719.00
837.67	7593.00
838.11	7636.00
838.55	7623.00
838.99	7671.00
839.43	7803.00
839.87	7793.00
840.30	7842.00
840.74	7954.00
841.18	7926.00
841.62	7988.00
842.06	8007.00
842.50	7959.00
842.94	7927.00
843.38	7831.00
843.81	7778.00
844.25	7670.00
844.69	7588.00
845.13	7668.00
845.57	7636.00
846.01	7767.00
846.45	7659.00
846.88	7723.00
847.32	7872.00
847.76	7889.00
848.20	7957.00
848.64	7869.00
849.08	7755.00
849.51	7727.00
849.95	7694.00
850.39	7605.00
850.83	7701.00
851.27	7633.00
851.70	7557.00
852.14	7543.00
852.58	7497.00
853.02	7233.00
853.46	7216.00
853.89	7184.00
854.33	7179.00
854.77	7384.00
855.21	7618.00
855.65	7887.00
856.08	7928.00
856.52	7853.00
856.96	7900.00
857.40	7662.00
857.83	7665.00
858.27	7696.00
858.71	7437.00
859.15	7435.00
859.58	7492.00
860.02	7521.00
860.46	7635.00
860.89	7765.00
861.33	7763.00
861.77	7829.00
862.21	7885.00
862.64	7845.00
863.08	7758.00
863.52	7822.00
863.95	7750.00
864.39	7552.00
864.83	7347.00
865.27	7194.00
865.70	7115.00
866.14	7009.00
866.58	7108.00
867.01	7325.00
867.45	7479.00
867.89	7566.00
868.32	7690.00
868.76	7728.00
869.20	7743.00
869.63	7828.00
870.07	7770.00
870.51	7531.00
870.94	7477.00
871.38	7329.00
871.82	7316.00
872.25	7306.00
872.69	7265.00
873.13	7331.00
873.56	7374.00
874.00	7463.00
874.43	7471.00
874.87	7457.00
875.31	7656.00
875.74	7580.00
876.18	7668.00
876.61	7543.00
877.05	7559.00
877.49	7563.00
877.92	7355.00
878.36	7371.00
878.79	7295.00
879.23	7204.00
879.67	7069.00
880.10	7079.00
880.54	7135.00
880.97	7135.00
881.41	7303.00
881.84	7431.00
882.28	7511.00
882.72	7505.00
883.15	7576.00
883.59	7631.00
884.02	7621.00
884.46	7564.00
884.89	7396.00
885.33	7492.00
885.76	7208.00
886.20	7190.00
886.63	7247.00
887.07	7019.00
887.50	7101.00
887.94	7073.00
888.37	7089.00
888.81	7333.00
889.24	7198.00
889.68	7320.00
890.11	7372.00
890.55	7333.00
890.98	7409.00
891.42	7416.00
891.85	7331.00
892.29	7343.00
892.72	7157.00
893.16	7031.00
893.59	6923.00
894.03	6777.00
894.46	6685.00
894.90	6510.00
895.33	6354.00
895.77	6367.00
896.20	6311.00
896.63	6299.00
897.07	6348.00
897.50	6329.00
897.94	6362.00
898.37	6481.00
898.81	6239.00
899.24	6142.00
899.68	6460.00
900.11	6413.00
900.54	6258.00
900.98	6183.00
901.41	6293.00
901.85	6274.00
902.28	6200.00
902.71	6227.00
903.15	6399.00
903.58	6505.00
904.02	6515.00
904.45	6530.00
904.88	6419.00
905.32	6392.00
905.75	6562.00
906.18	6333.00
906.62	6370.00
907.05	6286.00
907.48	6311.00
907.92	6276.00
908.35	6273.00
908.79	6144.00
909.22	6149.00
909.65	6071.00
910.09	6108.00
910.52	6235.00
910.95	6045.00
911.38	6025.00
911.82	5931.00
912.25	5961.00
912.68	6084.00
913.12	6089.00
913.55	6005.00
913.98	6091.00
914.42	6247.00
914.85	6357.00
915.28	6173.00
915.72	6175.00
916.15	6040.00
916.58	6164.00
917.01	5945.00
917.45	5963.00
917.88	5931.00
918.31	6090.00
918.74	6191.00
919.18	6255.00
919.61	6243.00
920.04	6269.00
920.47	6420.00
920.91	6461.00
921.34	6309.00
921.77	6332.00
922.20	6417.00
922.64	6382.00
923.07	6443.00
923.50	6407.00
923.93	6283.00
924.37	6307.00
924.80	6194.00
925.23	6137.00
925.66	6157.00
926.09	5842.00
926.53	5796.00
926.96	5667.00
927.39	5656.00
927.82	5461.00
928.25	5189.00
928.69	5265.00
929.12	5221.00
929.55	5080.00
929.98	5024.00
930.41	4843.00
930.84	4803.00
931.28	4568.00
931.71	4537.00
932.14	4364.00
932.57	4345.00
933.00	4229.00
933.43	4179.00
933.86	4074.00
934.30	4002.00
934.73	4192.00
935.16	4059.00
935.59	3959.00
936.02	4062.00
936.45	4057.00
936.88	4027.00
937.31	4167.00
937.75	4223.00
938.18	4306.00
938.61	4407.00
939.04	4385.00
939.47	4399.00
939.90	4332.00
940.33	4345.00
940.76	4158.00
941.19	4107.00
941.62	4045.00
942.05	4047.00
942.48	3968.00
942.91	3913.00
943.35	4004.00
943.78	3991.00
944.21	3965.00
944.64	4041.00
945.07	4016.00
945.50	4012.00
945.93	4069.00
946.36	4130.00
946.79	4103.00
947.22	4199.00
947.65	4223.00
948.08	4078.00
948.51	4185.00
948.94	4193.00
949.37	4291.00
949.80	4189.00
950.23	4121.00
950.66	4184.00
951.09	4215.00
951.52	4076.00
951.95	4179.00
952.38	4201.00
952.81	4341.00
953.24	4306.00
953.67	4344.00
954.10	4316.00
954.53	4369.00
954.96	4413.00
955.39	4436.00
955.82	4500.00
956.25	4467.00
956.68	4601.00
957.11	4552.00
957.53	4500.00
957.96	4494.00
958.39	4439.00
958.82	4358.00
959.25	4345.00
959.68	4472.00
960.11	4528.00
960.54	4567.00
960.97	4633.00
961.40	4756.00
961.83	4695.00
962.26	4679.00
962.68	4917.00
963.11	4885.00
963.54	4904.00
963.97	4955.00
964.40	4911.00
964.83	5049.00
965.26	4989.00
965.69	4985.00
966.11	4937.00
966.54	4933.00
966.97	5074.00
967.40	5110.00
967.83	5286.00
968.26	5083.00
968.69	5117.00
969.11	5139.00
969.54	5107.00
969.97	5109.00
970.40	5235.00
970.83	5225.00
971.26	5209.00
971.68	5112.00
972.11	5227.00
972.54	5247.00
972.97	5242.00
973.40	5245.00
973.82	5225.00
974.25	5121.00
974.68	5123.00
975.11	5091.00
975.54	5068.00
975.96	5021.00
976.39	5011.00
976.82	5137.00
977.25	5072.00
977.67	5060.00
978.10	5035.00
978.53	5078.00
978.96	5203.00
979.38	5285.00
979.81	5235.00
980.24	5305.00
980.67	5341.00
981.09	5421.00
981.52	5411.00
981.95	5366.00
982.38	5426.00
982.80	5461.00
983.23	5518.00
983.66	5557.00
984.08	5432.00
984.51	5373.00
984.94	5383.00
985.37	5449.00
985.79	5290.00
986.22	5249.00
986.65	5253.00
987.07	5224.00
987.50	5248.00
987.93	5225.00
988.35	5291.00
988.78	5242.00
989.21	5241.00
989.63	5399.00
990.06	5330.00
990.49	5471.00
990.91	5613.00
991.34	5532.00
991.77	5407.00
992.19	5489.00
992.62	5387.00
993.05	5391.00
993.47	5469.00
993.90	5436.00
994.32	5357.00
994.75	5377.00
995.18	5258.00
995.60	5215.00
996.03	5173.00
996.45	5209.00
996.88	5225.00
997.31	5160.00
997.73	5173.00
998.16	5109.00
998.58	5241.00
999.01	5205.00
999.44	5297.00
999.86	5302.00
1000.29	5253.00
1000.71	5337.00
1001.14	5335.00
1001.56	5336.00
1001.99	5232.00
1002.41	5248.00
1002.84	5248.00
1003.27	5166.00
1003.69	5055.00
1004.12	5133.00
1004.54	5061.00
1004.97	4977.00
1005.39	4921.00
1005.82	5006.00
1006.24	4988.00
1006.67	4871.00
1007.09	4908.00
1007.52	4872.00
1007.94	4926.00
1008.37	5085.00
1008.79	4933.00
1009.22	5020.00
1009.64	4995.00
1010.07	4965.00
1010.49	5030.00
1010.92	4929.00
1011.34	5024.00
1011.77	4971.00
1012.19	4967.00
1012.62	5017.00
1013.04	4846.00
1013.46	5029.00
1013.89	4829.00
1014.31	4872.00
1014.74	4764.00
1015.16	4739.00
1015.59	4715.00
1016.01	4763.00
1016.44	4729.00
1016.86	5863.00
1017.28	4729.00
1017.71	4809.00
1018.13	4929.00
1018.56	4879.00
1018.98	4903.00
1019.40	4815.00
1019.83	4905.00
1020.25	4943.00
1020.68	4879.00
1021.10	4981.00
1021.52	4870.00
1021.95	5104.00
1022.37	4933.00
1022.79	4957.00
1023.22	4868.00
1023.64	4878.00
1024.07	4791.00
1024.49	4803.00
1024.91	4745.00
1025.34	4703.00
1025.76	4831.00
1026.18	4709.00
1026.61	4770.00
1027.03	4733.00
1027.45	4788.00
1027.88	4676.00
1028.30	4839.00
1028.72	4768.00
1029.15	4769.00
1029.57	4806.00
1029.99	4859.00
1030.41	4732.00
1030.84	4801.00
1031.26	4819.00
1031.68	4753.00
1032.11	4790.00
1032.53	4638.00
1032.95	4642.00
1033.37	4710.00
1033.80	4670.00
1034.22	4521.00
1034.64	4697.00
1035.06	4527.00
1035.49	4550.00
1035.91	4523.00
1036.33	4407.00
1036.75	4510.00
1037.18	4514.00
1037.60	4525.00
1038.02	4532.00
1038.44	4541.00
1038.87	4478.00
1039.29	4458.00
1039.71	4489.00
1040.13	4485.00
1040.55	4567.00
1040.98	4547.00
1041.40	4543.00
1041.82	4462.00
1042.24	4441.00
1042.66	4455.00
1043.09	4377.00
1043.51	4376.00
1043.93	4291.00
1044.35	4276.00
1044.77	4335.00
1045.20	4330.00
1045.62	4265.00
1046.04	4278.00
1046.46	4272.00
1046.88	4173.00
1047.30	4273.00
1047.72	4243.00
1048.15	4244.00
1048.57	4131.00
1048.99	4153.00
1049.41	4197.00
1049.83	4261.00
1050.25	4254.00
1050.67	4238.00
1051.09	4160.00
1051.52	4200.00
1051.94	4061.00
1052.36	4137.00
1052.78	4117.00
1053.20	4141.00
1053.62	4076.00
1054.04	4117.00
1054.46	4167.00
1054.88	4199.00
1055.30	4141.00
1055.72	4122.00
1056.14	4072.00
1056.57	4177.00
1056.99	3963.00
1057.41	3989.00
1057.83	3977.00
1058.25	3985.00
1058.67	3961.00
1059.09	3924.00
1059.51	3937.00
1059.93	3970.00
1060.35	3921.00
1060.77	3959.00
1061.19	4037.00
1061.61	3931.00
1062.03	3906.00
1062.45	3877.00
1062.87	3960.00
1063.29	3919.00
1063.71	3903.00
1064.13	3860.00
1064.55	3835.00
1064.97	3897.00
1065.39	3869.00
1065.81	3844.00
1066.23	3849.00
1066.65	3822.00
1067.07	3935.00
1067.49	3847.00
1067.91	3807.00
1068.33	3731.00
1068.75	3881.00
1069.17	3834.00
1069.59	3900.00
1070.00	3805.00
1070.42	3771.00
1070.84	3767.00
1071.26	3687.00
1071.68	3721.00
1072.10	3762.00
1072.52	3768.00
1072.94	3716.00
1073.36	3740.00
1073.78	3704.00
1074.20	3743.00
1074.62	3701.00
1075.03	3673.00
1075.45	3726.00
1075.87	3753.00
1076.29	3711.00
1076.71	3739.00
1077.13	3800.00
1077.55	3631.00
1077.97	3704.00
1078.38	3659.00
1078.80	3667.00
1079.22	3713.00
1079.64	3642.00
1080.06	3643.00
1080.48	3648.00
1080.89	3632.00
1081.31	3649.00
1081.73	3649.00
1082.15	3620.00
1082.57	3637.00
1082.99	3619.00
1083.40	3617.00
1083.82	3664.00
1084.24	3495.00
1084.66	3551.00
1085.08	3615.00
1085.49	3543.00
1085.91	3603.00
1086.33	4847.00
1086.75	3551.00
1087.17	3559.00
1087.58	3541.00
1088.00	3578.00
1088.42	3659.00
1088.84	3559.00
1089.25	3529.00
1089.67	3578.00
1090.09	3556.00
1090.51	3515.00
1090.92	3587.00
1091.34	3510.00
1091.76	3516.00
1092.18	3509.00
1092.59	3513.00
1093.01	3469.00
1093.43	3474.00
1093.84	3426.00
1094.26	3486.00
1094.68	3515.00
1095.10	3417.00
1095.51	3439.00
1095.93	3443.00
1096.35	3477.00
1096.76	3498.00
1097.18	3503.00
1097.60	3431.00
1098.01	3459.00
1098.43	3434.00
1098.85	3443.00
1099.26	3361.00
1099.68	3456.00
1100.10	3387.00
1100.51	3380.00
1100.93	3419.00
1101.35	3437.00
1101.76	3417.00
1102.18	3866.00
1102.60	3449.00
1103.01	3330.00
1103.43	3421.00
1103.84	3411.00
1104.26	3333.00
1104.68	3398.00
1105.09	3273.00
1105.51	3320.00
1105.92	3391.00
1106.34	3347.00
1106.76	3341.00
1107.17	3351.00
1107.59	3335.00
1108.00	3243.00
1108.42	3305.00
1108.83	3296.00
1109.25	3313.00
1109.67	3258.00
1110.08	3295.00
1110.50	3235.00
1110.91	3331.00
1111.33	3243.00
1111.74	3325.00
1112.16	3258.00
1112.57	3329.00
1112.99	3247.00
1113.41	3305.00
1113.82	3256.00
1114.24	3237.00
1114.65	3237.00
1115.07	3173.00
1115.48	3081.00
1115.90	2188.00
1116.31	2208.00
1116.73	2206.00
1117.14	2210.00
>>>>>End Processed Spectral Data<<<<<
