SpectraSuite Data File
++++++++++++++++++++++++++++++++++++
Date: Tue May 29 13:10:30 EEST 2018
User: CanSEE
Dark Spectrum Present: No
Reference Spectrum Present: No
Number of Sampled Component Spectra: 1
Spectrometers: MAYP11278
Integration Time (usec): 230000 (MAYP11278)
Spectra Averaged: 1 (MAYP11278)
Boxcar Smoothing: 0 (MAYP11278)
Correct for Electrical Dark: No (MAYP11278)
Strobe/Lamp Enabled: No (MAYP11278)
Correct for Detector Non-linearity: No (MAYP11278)
Correct for Stray Light: No (MAYP11278)
Number of Pixels in Processed Spectrum: 2068
>>>>>Begin Processed Spectral Data<<<<<
187.82	2331.00
188.30	2236.00
188.78	2212.00
189.26	2210.00
189.73	3178.00
190.21	3307.00
190.69	3419.00
191.17	3452.00
191.64	3492.00
192.12	3403.00
192.60	3385.00
193.07	3358.00
193.55	3419.00
194.03	3395.00
194.51	3422.00
194.98	3424.00
195.46	3470.00
195.94	3409.00
196.42	3378.00
196.89	3522.00
197.37	3413.00
197.85	3379.00
198.32	3403.00
198.80	3366.00
199.28	3446.00
199.76	3448.00
200.23	3407.00
200.71	3395.00
201.19	3477.00
201.66	3417.00
202.14	3463.00
202.62	3385.00
203.09	3413.00
203.57	3393.00
204.05	3453.00
204.53	3521.00
205.00	3413.00
205.48	3421.00
205.96	3472.00
206.43	3406.00
206.91	3459.00
207.39	3562.00
207.86	3411.00
208.34	3460.00
208.82	3433.00
209.29	3477.00
209.77	3450.00
210.25	3419.00
210.72	3395.00
211.20	3446.00
211.68	3445.00
212.15	3415.00
212.63	3538.00
213.11	3437.00
213.58	3392.00
214.06	3501.00
214.53	3413.00
215.01	3472.00
215.49	3432.00
215.96	3447.00
216.44	3437.00
216.92	3420.00
217.39	3371.00
217.87	3438.00
218.35	3479.00
218.82	3385.00
219.30	3393.00
219.77	3395.00
220.25	3434.00
220.73	3515.00
221.20	3399.00
221.68	3473.00
222.15	3429.00
222.63	3461.00
223.11	3411.00
223.58	3468.00
224.06	3454.00
224.53	3411.00
225.01	3411.00
225.49	3449.00
225.96	3407.00
226.44	3427.00
226.91	3457.00
227.39	3426.00
227.87	3466.00
228.34	3477.00
228.82	3458.00
229.29	3411.00
229.77	3417.00
230.24	3445.00
230.72	3475.00
231.20	3486.00
231.67	3464.00
232.15	3405.00
232.62	3415.00
233.10	3439.00
233.57	3461.00
234.05	3585.00
234.53	3455.00
235.00	3401.00
235.48	3410.00
235.95	3417.00
236.43	3507.00
236.90	3560.00
237.38	3424.00
237.85	3458.00
238.33	3419.00
238.80	3417.00
239.28	3435.00
239.75	3411.00
240.23	3471.00
240.71	3473.00
241.18	3438.00
241.66	3396.00
242.13	3484.00
242.61	3503.00
243.08	3393.00
243.56	3434.00
244.03	3467.00
244.51	3510.00
244.98	3417.00
245.46	3503.00
245.93	4633.00
246.41	3357.00
246.88	3456.00
247.36	3447.00
247.83	3474.00
248.31	3468.00
248.78	3407.00
249.26	3444.00
249.73	3495.00
250.21	3453.00
250.68	3495.00
251.16	3430.00
251.63	3568.00
252.10	3511.00
252.58	3397.00
253.05	3485.00
253.53	3425.00
254.00	3423.00
254.48	3441.00
254.95	3511.00
255.43	3502.00
255.90	3445.00
256.38	3441.00
256.85	3447.00
257.33	3521.00
257.80	3599.00
258.27	3489.00
258.75	3473.00
259.22	3462.00
259.70	3506.00
260.17	3541.00
260.65	3414.00
261.12	3474.00
261.59	3515.00
262.07	3443.00
262.54	3468.00
263.02	3442.00
263.49	3439.00
263.97	3492.00
264.44	3494.00
264.91	3443.00
265.39	3460.00
265.86	3504.00
266.34	3479.00
266.81	3468.00
267.28	3454.00
267.76	3451.00
268.23	3461.00
268.71	3366.00
269.18	3391.00
269.65	3384.00
270.13	3460.00
270.60	3492.00
271.08	3461.00
271.55	3472.00
272.02	3412.00
272.50	3438.00
272.97	3412.00
273.44	3436.00
273.92	3611.00
274.39	3461.00
274.87	3504.00
275.34	3423.00
275.81	3423.00
276.29	3434.00
276.76	3441.00
277.23	3363.00
277.71	3355.00
278.18	3310.00
278.65	3545.00
279.13	3413.00
279.60	3407.00
280.07	3695.00
280.55	3650.00
281.02	3736.00
281.50	3521.00
281.97	3539.00
282.44	3532.00
282.91	3474.00
283.39	3503.00
283.86	3469.00
284.33	3415.00
284.81	3510.00
285.28	3507.00
285.75	3508.00
286.23	3518.00
286.70	3441.00
287.17	3495.00
287.65	3545.00
288.12	3457.00
288.59	3485.00
289.07	3395.00
289.54	3527.00
290.01	3474.00
290.48	3467.00
290.96	3441.00
291.43	3497.00
291.90	3544.00
292.38	3413.00
292.85	3519.00
293.32	3445.00
293.79	3504.00
294.27	3478.00
294.74	3446.00
295.21	3478.00
295.69	3498.00
296.16	3540.00
296.63	3513.00
297.10	3500.00
297.58	3479.00
298.05	3500.00
298.52	3463.00
298.99	3554.00
299.47	3468.00
299.94	3472.00
300.41	3443.00
300.88	3483.00
301.36	3521.00
301.83	3507.00
302.30	3455.00
302.77	3503.00
303.25	3513.00
303.72	3444.00
304.19	3460.00
304.66	3461.00
305.13	3491.00
305.61	3499.00
306.08	3527.00
306.55	3510.00
307.02	3447.00
307.49	3482.00
307.97	3465.00
308.44	3457.00
308.91	3524.00
309.38	3544.00
309.86	3490.00
310.33	3455.00
310.80	3491.00
311.27	3443.00
311.74	3551.00
312.21	3467.00
312.69	3577.00
313.16	3500.00
313.63	3493.00
314.10	3524.00
314.57	3437.00
315.05	3461.00
315.52	3523.00
315.99	3520.00
316.46	3485.00
316.93	3512.00
317.40	3521.00
317.88	3623.00
318.35	3501.00
318.82	3480.00
319.29	3439.00
319.76	3495.00
320.23	3584.00
320.70	3505.00
321.18	3530.00
321.65	3402.00
322.12	3479.00
322.59	3594.00
323.06	3486.00
323.53	3619.00
324.00	3481.00
324.48	3512.00
324.95	3513.00
325.42	3506.00
325.89	3496.00
326.36	3494.00
326.83	3505.00
327.30	3515.00
327.77	3562.00
328.24	3540.00
328.72	3525.00
329.19	3493.00
329.66	3471.00
330.13	3500.00
330.60	3547.00
331.07	3562.00
331.54	3636.00
332.01	3471.00
332.48	3622.00
332.95	3546.00
333.43	3514.00
333.90	3612.00
334.37	3534.00
334.84	3514.00
335.31	3657.00
335.78	3445.00
336.25	3524.00
336.72	3495.00
337.19	3512.00
337.66	3481.00
338.13	3496.00
338.60	3574.00
339.07	3573.00
339.54	3469.00
340.01	3470.00
340.49	3439.00
340.96	3544.00
341.43	3576.00
341.90	3458.00
342.37	3489.00
342.84	3544.00
343.31	3535.00
343.78	3514.00
344.25	3514.00
344.72	3466.00
345.19	3499.00
345.66	3540.00
346.13	3499.00
346.60	3456.00
347.07	3626.00
347.54	3482.00
348.01	3571.00
348.48	3530.00
348.95	3457.00
349.42	3509.00
349.89	3566.00
350.36	3539.00
350.83	3490.00
351.30	3516.00
351.77	3562.00
352.24	3516.00
352.71	3482.00
353.18	3524.00
353.65	3558.00
354.12	3517.00
354.59	3503.00
355.06	3542.00
355.53	3543.00
356.00	3496.00
356.47	3597.00
356.94	3455.00
357.41	3686.00
357.88	3569.00
358.35	3493.00
358.82	3486.00
359.28	3496.00
359.75	3539.00
360.22	3589.00
360.69	3603.00
361.16	3533.00
361.63	3536.00
362.10	3539.00
362.57	3499.00
363.04	3508.00
363.51	3627.00
363.98	3546.00
364.45	3501.00
364.92	3557.00
365.39	3499.00
365.86	3506.00
366.32	3559.00
366.79	3527.00
367.26	4415.00
367.73	3521.00
368.20	3489.00
368.67	3553.00
369.14	3491.00
369.61	3527.00
370.08	3511.00
370.55	3466.00
371.02	4222.00
371.48	3533.00
371.95	3487.00
372.42	3458.00
372.89	3515.00
373.36	3525.00
373.83	3478.00
374.30	3461.00
374.77	3497.00
375.23	3476.00
375.70	3580.00
376.17	3488.00
376.64	3457.00
377.11	3509.00
377.58	3513.00
378.05	3560.00
378.51	3504.00
378.98	3523.00
379.45	3508.00
379.92	3541.00
380.39	3687.00
380.86	3531.00
381.33	3563.00
381.79	3564.00
382.26	3477.00
382.73	3583.00
383.20	3517.00
383.67	3548.00
384.14	3501.00
384.60	3763.00
385.07	3543.00
385.54	3484.00
386.01	3497.00
386.48	3565.00
386.94	3477.00
387.41	3485.00
387.88	3572.00
388.35	3566.00
388.82	3573.00
389.28	3486.00
389.75	3537.00
390.22	3536.00
390.69	3582.00
391.16	3531.00
391.62	3500.00
392.09	3542.00
392.56	3548.00
393.03	3485.00
393.50	3634.00
393.96	3539.00
394.43	3540.00
394.90	3452.00
395.37	3570.00
395.83	3709.00
396.30	3470.00
396.77	3533.00
397.24	3553.00
397.70	3497.00
398.17	3483.00
398.64	3489.00
399.11	3529.00
399.57	3571.00
400.04	3458.00
400.51	3507.00
400.98	3507.00
401.44	3553.00
401.91	3527.00
402.38	3533.00
402.84	3534.00
403.31	3561.00
403.78	3531.00
404.25	3565.00
404.71	3594.00
405.18	3583.00
405.65	3464.00
406.12	3566.00
406.58	3578.00
407.05	3635.00
407.52	3504.00
407.98	4011.00
408.45	3540.00
408.92	3484.00
409.38	3583.00
409.85	3443.00
410.32	3625.00
410.78	3520.00
411.25	3595.00
411.72	3535.00
412.18	3475.00
412.65	3542.00
413.12	3525.00
413.59	3527.00
414.05	3563.00
414.52	3660.00
414.98	3524.00
415.45	3631.00
415.92	3550.00
416.38	3559.00
416.85	3648.00
417.32	3570.00
417.78	3539.00
418.25	3581.00
418.72	3569.00
419.18	3641.00
419.65	3513.00
420.12	3609.00
420.58	3545.00
421.05	3558.00
421.51	3536.00
421.98	3585.00
422.45	3565.00
422.91	3562.00
423.38	3593.00
423.85	3607.00
424.31	3557.00
424.78	3609.00
425.24	3551.00
425.71	3639.00
426.18	3568.00
426.64	3690.00
427.11	3588.00
427.57	3635.00
428.04	3606.00
428.51	3652.00
428.97	3595.00
429.44	3620.00
429.90	3551.00
430.37	3683.00
430.83	3535.00
431.30	3579.00
431.77	3699.00
432.23	3673.00
432.70	3618.00
433.16	3621.00
433.63	3630.00
434.09	3589.00
434.56	3635.00
435.03	3565.00
435.49	3683.00
435.96	3640.00
436.42	3586.00
436.89	3722.00
437.35	3654.00
437.82	3601.00
438.28	3640.00
438.75	3679.00
439.21	3802.00
439.68	3660.00
440.14	3681.00
440.61	3740.00
441.07	3613.00
441.54	3626.00
442.00	3773.00
442.47	3625.00
442.94	3681.00
443.40	3671.00
443.87	3640.00
444.33	3721.00
444.80	3681.00
445.26	3660.00
445.73	3657.00
446.19	3645.00
446.65	3683.00
447.12	3689.00
447.58	3713.00
448.05	3631.00
448.51	3667.00
448.98	3732.00
449.44	3699.00
449.91	3680.00
450.37	3671.00
450.84	3675.00
451.30	3711.00
451.77	3685.00
452.23	3635.00
452.70	3711.00
453.16	3705.00
453.62	3695.00
454.09	3680.00
454.55	3731.00
455.02	3666.00
455.48	3683.00
455.95	3747.00
456.41	3652.00
456.88	3715.00
457.34	3698.00
457.80	3669.00
458.27	3624.00
458.73	3682.00
459.20	3697.00
459.66	3700.00
460.13	3637.00
460.59	3611.00
461.05	3709.00
461.52	3693.00
461.98	3628.00
462.45	3567.00
462.91	3681.00
463.37	3619.00
463.84	3615.00
464.30	3657.00
464.76	3595.00
465.23	3627.00
465.69	3658.00
466.16	3610.00
466.62	3607.00
467.08	3592.00
467.55	3585.00
468.01	3600.00
468.48	3623.00
468.94	3584.00
469.40	3559.00
469.87	3581.00
470.33	3624.00
470.79	3541.00
471.26	3559.00
471.72	3543.00
472.18	3557.00
472.65	3588.00
473.11	3651.00
473.57	3569.00
474.04	3528.00
474.50	3587.00
474.96	3507.00
475.43	3616.00
475.89	3576.00
476.35	3588.00
476.82	3591.00
477.28	3580.00
477.74	3594.00
478.21	3575.00
478.67	3573.00
479.13	3559.00
479.59	3663.00
480.06	3555.00
480.52	3574.00
480.98	3531.00
481.45	3557.00
481.91	3557.00
482.37	3503.00
482.84	3542.00
483.30	3517.00
483.76	3555.00
484.22	3592.00
484.69	3567.00
485.15	3568.00
485.61	3432.00
486.07	3527.00
486.54	3433.00
487.00	3558.00
487.46	3479.00
487.92	3519.00
488.39	3559.00
488.85	3615.00
489.31	3572.00
489.77	3603.00
490.24	3539.00
490.70	3572.00
491.16	3529.00
491.62	3502.00
492.09	3464.00
492.55	3638.00
493.01	3590.00
493.47	3558.00
493.94	3577.00
494.40	3573.00
494.86	3567.00
495.32	3521.00
495.78	3604.00
496.25	3573.00
496.71	3578.00
497.17	3702.00
497.63	3627.00
498.09	3589.00
498.56	3617.00
499.02	3613.00
499.48	3694.00
499.94	3648.00
500.40	3587.00
500.87	3601.00
501.33	3579.00
501.79	3655.00
502.25	3667.00
502.71	3933.00
503.17	3679.00
503.64	3711.00
504.10	3661.00
504.56	3681.00
505.02	3703.00
505.48	3714.00
505.94	3711.00
506.40	3762.00
506.87	3739.00
507.33	3787.00
507.79	3798.00
508.25	3755.00
508.71	3764.00
509.17	3764.00
509.63	3793.00
510.10	3838.00
510.56	3797.00
511.02	3877.00
511.48	3919.00
511.94	3847.00
512.40	3887.00
512.86	3868.00
513.32	3953.00
513.78	3870.00
514.25	3999.00
514.71	4661.00
515.17	4018.00
515.63	4078.00
516.09	4023.00
516.55	4032.00
517.01	4112.00
517.47	4126.00
517.93	4061.00
518.39	4322.00
518.85	4170.00
519.32	4199.00
519.78	4254.00
520.24	4243.00
520.70	4339.00
521.16	4425.00
521.62	4451.00
522.08	4449.00
522.54	4463.00
523.00	4603.00
523.46	4622.00
523.92	4579.00
524.38	4753.00
524.84	4680.00
525.30	4710.00
525.76	4739.00
526.22	4619.00
526.68	4605.00
527.14	4702.00
527.60	4778.00
528.06	4884.00
528.52	4979.00
528.98	4951.00
529.44	4921.00
529.90	4996.00
530.36	5072.00
530.82	5055.00
531.28	5167.00
531.74	5058.00
532.20	5051.00
532.66	4985.00
533.12	5110.00
533.58	5106.00
534.04	5097.00
534.50	5193.00
534.96	5171.00
535.42	5265.00
535.88	5229.00
536.34	5253.00
536.80	5175.00
537.26	5286.00
537.72	5346.00
538.18	5261.00
538.64	5353.00
539.10	5288.00
539.56	5513.00
540.02	5230.00
540.48	5427.00
540.94	5346.00
541.40	5276.00
541.86	5339.00
542.32	5403.00
542.78	5419.00
543.24	5491.00
543.69	5403.00
544.15	5602.00
544.61	5459.00
545.07	5463.00
545.53	5433.00
545.99	5537.00
546.45	5514.00
546.91	5463.00
547.37	5499.00
547.83	5443.00
548.29	5536.00
548.74	5586.00
549.20	5567.00
549.66	5699.00
550.12	5628.00
550.58	5548.00
551.04	5667.00
551.50	5573.00
551.96	5708.00
552.42	5627.00
552.87	5539.00
553.33	5624.00
553.79	5647.00
554.25	5632.00
554.71	5688.00
555.17	5672.00
555.63	5737.00
556.08	5627.00
556.54	5600.00
557.00	5477.00
557.46	5521.00
557.92	5627.00
558.38	5469.00
558.83	5471.00
559.29	5410.00
559.75	5400.00
560.21	5426.00
560.67	5543.00
561.13	5491.00
561.58	5450.00
562.04	5453.00
562.50	5487.00
562.96	5424.00
563.42	5461.00
563.87	5400.00
564.33	5404.00
564.79	5424.00
565.25	5327.00
565.71	5310.00
566.16	5353.00
566.62	5273.00
567.08	5260.00
567.54	5234.00
568.00	5260.00
568.45	5175.00
568.91	5217.00
569.37	5220.00
569.83	5125.00
570.28	5106.00
570.74	5075.00
571.20	5043.00
571.66	5018.00
572.11	5114.00
572.57	5031.00
573.03	4975.00
573.49	4955.00
573.94	4994.00
574.40	5003.00
574.86	4971.00
575.32	4831.00
575.77	4885.00
576.23	4773.00
576.69	4880.00
577.15	4842.00
577.60	4819.00
578.06	4723.00
578.52	4829.00
578.97	4786.00
579.43	4758.00
579.89	4810.00
580.34	4754.00
580.80	4737.00
581.26	4814.00
581.72	4785.00
582.17	4745.00
582.63	4753.00
583.09	4676.00
583.54	4698.00
584.00	4689.00
584.46	4744.00
584.91	4692.00
585.37	4788.00
585.83	4615.00
586.28	4635.00
586.74	4657.00
587.20	4607.00
587.65	4651.00
588.11	4491.00
588.57	4506.00
589.02	4431.00
589.48	4390.00
589.94	4497.00
590.39	4545.00
590.85	4501.00
591.30	4568.00
591.76	4593.00
592.22	4515.00
592.67	4552.00
593.13	4476.00
593.59	4599.00
594.04	4504.00
594.50	4450.00
594.95	4519.00
595.41	4440.00
595.87	4422.00
596.32	4530.00
596.78	4535.00
597.23	4565.00
597.69	4505.00
598.15	4441.00
598.60	4524.00
599.06	4528.00
599.51	4489.00
599.97	4531.00
600.43	4488.00
600.88	4494.00
601.34	4512.00
601.79	4439.00
602.25	4549.00
602.70	4433.00
603.16	4439.00
603.61	4439.00
604.07	4386.00
604.53	4481.00
604.98	4402.00
605.44	4405.00
605.89	4467.00
606.35	4379.00
606.80	4428.00
607.26	4375.00
607.71	4383.00
608.17	4396.00
608.62	4375.00
609.08	4480.00
609.53	4386.00
609.99	4314.00
610.44	4300.00
610.90	4355.00
611.35	4319.00
611.81	4367.00
612.26	4312.00
612.72	4259.00
613.17	4380.00
613.63	4233.00
614.08	4208.00
614.54	4189.00
614.99	4197.00
615.45	4215.00
615.90	4203.00
616.36	4144.00
616.81	4142.00
617.27	4135.00
617.72	4226.00
618.18	4175.00
618.63	4158.00
619.09	4191.00
619.54	4209.00
619.99	4133.00
620.45	4157.00
620.90	4221.00
621.36	4130.00
621.81	4160.00
622.27	4230.00
622.72	4175.00
623.18	4105.00
623.63	4065.00
624.08	4135.00
624.54	4042.00
624.99	4077.00
625.45	4092.00
625.90	4047.00
626.35	4066.00
626.81	4056.00
627.26	4027.00
627.72	4109.00
628.17	4074.00
628.62	4035.00
629.08	4087.00
629.53	4110.00
629.99	4037.00
630.44	4124.00
630.89	4102.00
631.35	4117.00
631.80	4092.00
632.26	4113.00
632.71	4043.00
633.16	4092.00
633.62	4079.00
634.07	4113.00
634.52	4030.00
634.98	4043.00
635.43	4015.00
635.88	3987.00
636.34	4046.00
636.79	4021.00
637.24	4009.00
637.70	4133.00
638.15	4068.00
638.60	4029.00
639.06	3999.00
639.51	3995.00
639.96	3902.00
640.42	4017.00
640.87	4002.00
641.32	3928.00
641.78	3887.00
642.23	3955.00
642.68	3875.00
643.14	3921.00
643.59	3969.00
644.04	3877.00
644.49	3893.00
644.95	3888.00
645.40	3795.00
645.85	3863.00
646.31	3876.00
646.76	3882.00
647.21	3843.00
647.66	3812.00
648.12	3798.00
648.57	3734.00
649.02	3835.00
649.47	3790.00
649.93	3949.00
650.38	3742.00
650.83	3744.00
651.28	3746.00
651.74	3768.00
652.19	3717.00
652.64	3749.00
653.09	3683.00
653.55	3709.00
654.00	3775.00
654.45	3722.00
654.90	3736.00
655.35	3657.00
655.81	3685.00
656.26	3559.00
656.71	3644.00
657.16	3689.00
657.62	3699.00
658.07	3662.00
658.52	3677.00
658.97	3632.00
659.42	3876.00
659.88	3611.00
660.33	3706.00
660.78	3651.00
661.23	3646.00
661.68	3617.00
662.13	3661.00
662.59	3553.00
663.04	3623.00
663.49	3606.00
663.94	3587.00
664.39	3591.00
664.84	3573.00
665.30	3586.00
665.75	3521.00
666.20	3563.00
666.65	3583.00
667.10	3699.00
667.55	3635.00
668.00	3539.00
668.46	3544.00
668.91	3528.00
669.36	3633.00
669.81	3465.00
670.26	3525.00
670.71	3606.00
671.16	3505.00
671.61	3605.00
672.06	3594.00
672.52	3505.00
672.97	3532.00
673.42	3602.00
673.87	3674.00
674.32	3494.00
674.77	3555.00
675.22	3451.00
675.67	3478.00
676.12	3524.00
676.57	3496.00
677.02	3508.00
677.47	3514.00
677.93	3612.00
678.38	3486.00
678.83	3481.00
679.28	3528.00
679.73	3524.00
680.18	3524.00
680.63	3472.00
681.08	3481.00
681.53	3487.00
681.98	3511.00
682.43	3521.00
682.88	3549.00
683.33	3568.00
683.78	3555.00
684.23	3603.00
684.68	3554.00
685.13	3614.00
685.58	3604.00
686.03	3580.00
686.48	3519.00
686.93	3520.00
687.38	3507.00
687.83	3591.00
688.28	3638.00
688.73	3772.00
689.18	3689.00
689.63	3613.00
690.08	3675.00
690.53	3761.00
690.98	3729.00
691.43	3861.00
691.88	3882.00
692.33	3886.00
692.78	3992.00
693.23	4083.00
693.68	4122.00
694.13	4138.00
694.58	4175.00
695.03	4494.00
695.48	4302.00
695.93	4407.00
696.38	4616.00
696.83	4574.00
697.28	4633.00
697.72	4762.00
698.17	4736.00
698.62	4863.00
699.07	4946.00
699.52	5076.00
699.97	5067.00
700.42	5225.00
700.87	5295.00
701.32	5518.00
701.77	5405.00
702.22	5547.00
702.67	5571.00
703.11	5771.00
703.56	5869.00
704.01	5919.00
704.46	6047.00
704.91	6180.00
705.36	6272.00
705.81	6391.00
706.26	6381.00
706.70	6536.00
707.15	6532.00
707.60	6711.00
708.05	6837.00
708.50	6953.00
708.95	7015.00
709.40	7039.00
709.84	7189.00
710.29	7337.00
710.74	7313.00
711.19	7394.00
711.64	7549.00
712.09	7614.00
712.53	7754.00
712.98	7870.00
713.43	7855.00
713.88	7995.00
714.33	8099.00
714.78	8084.00
715.22	8091.00
715.67	8117.00
716.12	8059.00
716.57	7884.00
717.02	7733.00
717.46	7586.00
717.91	7643.00
718.36	7639.00
718.81	7447.00
719.26	7534.00
719.70	7771.00
720.15	7741.00
720.60	8071.00
721.05	8576.00
721.49	8849.00
721.94	8978.00
722.39	8951.00
722.84	8847.00
723.28	8635.00
723.73	8619.00
724.18	8653.00
724.63	8764.00
725.07	8818.00
725.52	8871.00
725.97	9063.00
726.42	9164.00
726.86	9394.00
727.31	9183.00
727.76	9296.00
728.21	9553.00
728.65	9439.00
729.10	9448.00
729.55	9562.00
729.99	9873.00
730.44	9847.00
730.89	9968.00
731.33	10127.00
731.78	10306.00
732.23	10670.00
732.68	10863.00
733.12	10969.00
733.57	11115.00
734.02	11325.00
734.46	11472.00
734.91	11451.00
735.36	11456.00
735.80	11676.00
736.25	11542.00
736.70	11706.00
737.14	11834.00
737.59	11986.00
738.04	11988.00
738.48	11825.00
738.93	11924.00
739.37	12049.00
739.82	12287.00
740.27	12321.00
740.71	12221.00
741.16	12254.00
741.61	12281.00
742.05	12243.00
742.50	12605.00
742.94	12527.00
743.39	12661.00
743.84	12618.00
744.28	12683.00
744.73	12761.00
745.18	12875.00
745.62	12842.00
746.07	12837.00
746.51	12923.00
746.96	12893.00
747.40	12843.00
747.85	12977.00
748.30	12881.00
748.74	12896.00
749.19	12808.00
749.63	12954.00
750.08	12818.00
750.52	12975.00
750.97	12914.00
751.42	12881.00
751.86	12879.00
752.31	12888.00
752.75	12917.00
753.20	12935.00
753.64	12904.00
754.09	12839.00
754.53	12975.00
754.98	12910.00
755.42	12921.00
755.87	12885.00
756.31	12919.00
756.76	12727.00
757.20	12692.00
757.65	12569.00
758.09	12440.00
758.54	12198.00
758.98	10980.00
759.43	9123.00
759.87	7126.00
760.32	6072.00
760.76	5994.00
761.21	6765.00
761.65	7885.00
762.10	8035.00
762.54	7735.00
762.99	7367.00
763.43	7619.00
763.88	7962.00
764.32	8375.00
764.77	9010.00
765.21	9540.00
765.66	10008.00
766.10	10321.00
766.54	10856.00
766.99	11234.00
767.43	11585.00
767.88	11899.00
768.32	12064.00
768.77	12239.00
769.21	12464.00
769.66	12428.00
770.10	12595.00
770.54	12734.00
770.99	12613.00
771.43	12673.00
771.88	12735.00
772.32	12619.00
772.76	12655.00
773.21	12677.00
773.65	12609.00
774.10	12501.00
774.54	12610.00
774.98	12656.00
775.43	12665.00
775.87	12713.00
776.31	12799.00
776.76	12725.00
777.20	12717.00
777.65	12663.00
778.09	12625.00
778.53	12686.00
778.98	12514.00
779.42	12639.00
779.86	12570.00
780.31	12578.00
780.75	12722.00
781.19	12666.00
781.64	12556.00
782.08	12692.00
782.52	12607.00
782.97	12441.00
783.41	12443.00
783.85	12395.00
784.30	12337.00
784.74	12335.00
785.18	12281.00
785.63	12228.00
786.07	12223.00
786.51	12320.00
786.95	12361.00
787.40	12279.00
787.84	12166.00
788.28	12262.00
788.73	12199.00
789.17	12088.00
789.61	11806.00
790.05	11731.00
790.50	11723.00
790.94	11801.00
791.38	11790.00
791.82	11713.00
792.27	11787.00
792.71	11835.00
793.15	11915.00
793.59	11873.00
794.04	11773.00
794.48	11764.00
794.92	11620.00
795.36	11502.00
795.81	11440.00
796.25	11504.00
796.69	11491.00
797.13	11530.00
797.57	11710.00
798.02	11742.00
798.46	11773.00
798.90	11679.00
799.34	11635.00
799.79	11635.00
800.23	11308.00
800.67	11309.00
801.11	11202.00
801.55	11209.00
801.99	11191.00
802.44	11253.00
802.88	11486.00
803.32	11384.00
803.76	11371.00
804.20	11411.00
804.64	11330.00
805.09	11405.00
805.53	11482.00
805.97	11335.00
806.41	11287.00
806.85	11176.00
807.29	11007.00
807.74	11053.00
808.18	10980.00
808.62	11093.00
809.06	10980.00
809.50	11031.00
809.94	10903.00
810.38	11126.00
810.82	11106.00
811.27	11088.00
811.71	10735.00
812.15	10625.00
812.59	10421.00
813.03	10332.00
813.47	10026.00
813.91	9725.00
814.35	9532.00
814.79	9607.00
815.23	9428.00
815.67	9362.00
816.12	9390.00
816.56	9382.00
817.00	9429.00
817.44	9451.00
817.88	9508.00
818.32	9279.00
818.76	9406.00
819.20	9496.00
819.64	9502.00
820.08	9648.00
820.52	9687.00
820.96	9968.00
821.40	9772.00
821.84	9586.00
822.28	9064.00
822.72	9070.00
823.16	8995.00
823.60	9398.00
824.04	9926.00
824.48	10015.00
824.92	10118.00
825.36	10004.00
825.80	9864.00
826.24	9757.00
826.68	9611.00
827.12	9790.00
827.56	9619.00
828.00	9569.00
828.44	9648.00
828.88	9674.00
829.32	9886.00
829.76	9825.00
830.20	9995.00
830.64	9841.00
831.08	9839.00
831.52	9729.00
831.96	9643.00
832.40	9479.00
832.84	9606.00
833.28	9662.00
833.72	9844.00
834.16	9947.00
834.60	10127.00
835.04	10268.00
835.48	10331.00
835.91	10255.00
836.35	10226.00
836.79	10077.00
837.23	10309.00
837.67	10156.00
838.11	10000.00
838.55	10129.00
838.99	9985.00
839.43	10125.00
839.87	10353.00
840.30	10281.00
840.74	10394.00
841.18	10419.00
841.62	10473.00
842.06	10422.00
842.50	10488.00
842.94	10371.00
843.38	10272.00
843.81	10203.00
844.25	10051.00
844.69	9967.00
845.13	9896.00
845.57	10047.00
846.01	10156.00
846.45	10149.00
846.88	10169.00
847.32	10373.00
847.76	10355.00
848.20	10442.00
848.64	10311.00
849.08	10270.00
849.51	10163.00
849.95	9988.00
850.39	10058.00
850.83	10060.00
851.27	10037.00
851.70	9928.00
852.14	9954.00
852.58	9712.00
853.02	9380.00
853.46	9321.00
853.89	9259.00
854.33	9248.00
854.77	9506.00
855.21	10020.00
855.65	10289.00
856.08	10504.00
856.52	10361.00
856.96	10354.00
857.40	10047.00
857.83	10051.00
858.27	9960.00
858.71	9640.00
859.15	9746.00
859.58	9805.00
860.02	9945.00
860.46	10025.00
860.89	10236.00
861.33	10288.00
861.77	10288.00
862.21	10411.00
862.64	10309.00
863.08	10385.00
863.52	10277.00
863.95	10116.00
864.39	9902.00
864.83	9670.00
865.27	9361.00
865.70	9344.00
866.14	9087.00
866.58	9238.00
867.01	9589.00
867.45	9694.00
867.89	9967.00
868.32	10113.00
868.76	10062.00
869.20	10271.00
869.63	10250.00
870.07	10183.00
870.51	9831.00
870.94	9666.00
871.38	9645.00
871.82	9462.00
872.25	9515.00
872.69	9489.00
873.13	9475.00
873.56	9595.00
874.00	9715.00
874.43	9696.00
874.87	9866.00
875.31	9964.00
875.74	9886.00
876.18	9974.00
876.61	10010.00
877.05	9892.00
877.49	9786.00
877.92	9708.00
878.36	9565.00
878.79	9468.00
879.23	9360.00
879.67	9081.00
880.10	9247.00
880.54	9211.00
880.97	9321.00
881.41	9592.00
881.84	9714.00
882.28	9817.00
882.72	9939.00
883.15	10051.00
883.59	10071.00
884.02	10017.00
884.46	9975.00
884.89	9771.00
885.33	9656.00
885.76	9424.00
886.20	9247.00
886.63	9236.00
887.07	9104.00
887.50	9180.00
887.94	9159.00
888.37	9246.00
888.81	9529.00
889.24	9356.00
889.68	9512.00
890.11	9725.00
890.55	9620.00
890.98	9743.00
891.42	9700.00
891.85	9510.00
892.29	9532.00
892.72	9275.00
893.16	9099.00
893.59	9029.00
894.03	8713.00
894.46	8556.00
894.90	8309.00
895.33	8020.00
895.77	8032.00
896.20	8053.00
896.63	8064.00
897.07	8054.00
897.50	8033.00
897.94	8125.00
898.37	8297.00
898.81	7844.00
899.24	7886.00
899.68	8247.00
900.11	8045.00
900.54	7975.00
900.98	7825.00
901.41	7839.00
901.85	7934.00
902.28	7912.00
902.71	7941.00
903.15	8168.00
903.58	8327.00
904.02	8375.00
904.45	8261.00
904.88	8273.00
905.32	8209.00
905.75	8293.00
906.18	8056.00
906.62	8100.00
907.05	7913.00
907.48	7978.00
907.92	7957.00
908.35	7917.00
908.79	7672.00
909.22	7649.00
909.65	7651.00
910.09	7659.00
910.52	7738.00
910.95	7579.00
911.38	7679.00
911.82	7403.00
912.25	7587.00
912.68	7678.00
913.12	7706.00
913.55	7668.00
913.98	7695.00
914.42	8062.00
914.85	7975.00
915.28	7753.00
915.72	7765.00
916.15	7672.00
916.58	7712.00
917.01	7621.00
917.45	7405.00
917.88	7560.00
918.31	7665.00
918.74	7820.00
919.18	7874.00
919.61	7937.00
920.04	7983.00
920.47	8151.00
920.91	8153.00
921.34	8052.00
921.77	8117.00
922.20	8249.00
922.64	8167.00
923.07	8228.00
923.50	8123.00
923.93	7915.00
924.37	7916.00
924.80	7801.00
925.23	7777.00
925.66	7690.00
926.09	7307.00
926.53	7277.00
926.96	7049.00
927.39	6946.00
927.82	6633.00
928.25	6465.00
928.69	6354.00
929.12	6313.00
929.55	6095.00
929.98	5977.00
930.41	5733.00
930.84	5592.00
931.28	5309.00
931.71	5215.00
932.14	4927.00
932.57	4892.00
933.00	4697.00
933.43	4664.00
933.86	4501.00
934.30	4464.00
934.73	4667.00
935.16	4507.00
935.59	4442.00
936.02	4479.00
936.45	4497.00
936.88	4437.00
937.31	4662.00
937.75	4760.00
938.18	4830.00
938.61	5008.00
939.04	5036.00
939.47	5051.00
939.90	4935.00
940.33	4929.00
940.76	4653.00
941.19	4615.00
941.62	4479.00
942.05	4487.00
942.48	4313.00
942.91	4283.00
943.35	4375.00
943.78	4310.00
944.21	4283.00
944.64	4423.00
945.07	4491.00
945.50	4402.00
945.93	4437.00
946.36	4619.00
946.79	4608.00
947.22	4755.00
947.65	4701.00
948.08	4539.00
948.51	4679.00
948.94	4769.00
949.37	4741.00
949.80	4583.00
950.23	4595.00
950.66	4668.00
951.09	4696.00
951.52	4545.00
951.95	4670.00
952.38	4657.00
952.81	4882.00
953.24	4922.00
953.67	4928.00
954.10	4901.00
954.53	4925.00
954.96	4921.00
955.39	5071.00
955.82	5187.00
956.25	5139.00
956.68	5285.00
957.11	5262.00
957.53	5160.00
957.96	5113.00
958.39	5110.00
958.82	4936.00
959.25	5049.00
959.68	5098.00
960.11	5199.00
960.54	5220.00
960.97	5399.00
961.40	5446.00
961.83	5444.00
962.26	5439.00
962.68	5733.00
963.11	5731.00
963.54	5733.00
963.97	5757.00
964.40	5749.00
964.83	5967.00
965.26	5896.00
965.69	5849.00
966.11	5808.00
966.54	5799.00
966.97	6044.00
967.40	6144.00
967.83	6210.00
968.26	6049.00
968.69	6009.00
969.11	6120.00
969.54	6040.00
969.97	6086.00
970.40	6146.00
970.83	6205.00
971.26	6202.00
971.68	6213.00
972.11	6146.00
972.54	6249.00
972.97	6261.00
973.40	6185.00
973.82	6169.00
974.25	6147.00
974.68	6180.00
975.11	6114.00
975.54	6001.00
975.96	5979.00
976.39	5909.00
976.82	6006.00
977.25	5968.00
977.67	5981.00
978.10	6013.00
978.53	6007.00
978.96	6160.00
979.38	6281.00
979.81	6170.00
980.24	6370.00
980.67	6471.00
981.09	6487.00
981.52	6544.00
981.95	6519.00
982.38	6501.00
982.80	6555.00
983.23	6705.00
983.66	6667.00
984.08	6593.00
984.51	6503.00
984.94	6487.00
985.37	6583.00
985.79	6337.00
986.22	6379.00
986.65	6330.00
987.07	6263.00
987.50	6267.00
987.93	6281.00
988.35	6277.00
988.78	6339.00
989.21	6327.00
989.63	6449.00
990.06	6438.00
990.49	6610.00
990.91	6640.00
991.34	6662.00
991.77	6590.00
992.19	6574.00
992.62	6580.00
993.05	6560.00
993.47	6578.00
993.90	6562.00
994.32	6465.00
994.75	6387.00
995.18	6242.00
995.60	6233.00
996.03	6164.00
996.45	6195.00
996.88	6167.00
997.31	6141.00
997.73	6219.00
998.16	6069.00
998.58	6258.00
999.01	6168.00
999.44	6262.00
999.86	6332.00
1000.29	6313.00
1000.71	6363.00
1001.14	6361.00
1001.56	6373.00
1001.99	6427.00
1002.41	6239.00
1002.84	6222.00
1003.27	6075.00
1003.69	6085.00
1004.12	5973.00
1004.54	5991.00
1004.97	5844.00
1005.39	5836.00
1005.82	5895.00
1006.24	5826.00
1006.67	5791.00
1007.09	5783.00
1007.52	5731.00
1007.94	5844.00
1008.37	5957.00
1008.79	5911.00
1009.22	5879.00
1009.64	5901.00
1010.07	5898.00
1010.49	5918.00
1010.92	5869.00
1011.34	5958.00
1011.77	5892.00
1012.19	5885.00
1012.62	5933.00
1013.04	5832.00
1013.46	5850.00
1013.89	5610.00
1014.31	5646.00
1014.74	5581.00
1015.16	5552.00
1015.59	5481.00
1016.01	5556.00
1016.44	5517.00
1016.86	6416.00
1017.28	5524.00
1017.71	5447.00
1018.13	5737.00
1018.56	5668.00
1018.98	5686.00
1019.40	5688.00
1019.83	5724.00
1020.25	5765.00
1020.68	5775.00
1021.10	5945.00
1021.52	5800.00
1021.95	6031.00
1022.37	5833.00
1022.79	5808.00
1023.22	5817.00
1023.64	5735.00
1024.07	5735.00
1024.49	5705.00
1024.91	5567.00
1025.34	5539.00
1025.76	5769.00
1026.18	5506.00
1026.61	5465.00
1027.03	5513.00
1027.45	5483.00
1027.88	5533.00
1028.30	5628.00
1028.72	5572.00
1029.15	5565.00
1029.57	5656.00
1029.99	5708.00
1030.41	5522.00
1030.84	5630.00
1031.26	5578.00
1031.68	5508.00
1032.11	5580.00
1032.53	5453.00
1032.95	5475.00
1033.37	5392.00
1033.80	5450.00
1034.22	5361.00
1034.64	5402.00
1035.06	5187.00
1035.49	5190.00
1035.91	5239.00
1036.33	5063.00
1036.75	5197.00
1037.18	5211.00
1037.60	5188.00
1038.02	5167.00
1038.44	5217.00
1038.87	5138.00
1039.29	5127.00
1039.71	5146.00
1040.13	5149.00
1040.55	5213.00
1040.98	5168.00
1041.40	5103.00
1041.82	5164.00
1042.24	5117.00
1042.66	5104.00
1043.09	5012.00
1043.51	4957.00
1043.93	4947.00
1044.35	4953.00
1044.77	4913.00
1045.20	4961.00
1045.62	4821.00
1046.04	4800.00
1046.46	4809.00
1046.88	4756.00
1047.30	4809.00
1047.72	4750.00
1048.15	4738.00
1048.57	4750.00
1048.99	4675.00
1049.41	4726.00
1049.83	4725.00
1050.25	4794.00
1050.67	4745.00
1051.09	4664.00
1051.52	4647.00
1051.94	4595.00
1052.36	4685.00
1052.78	4579.00
1053.20	4675.00
1053.62	4591.00
1054.04	4600.00
1054.46	4593.00
1054.88	4675.00
1055.30	4574.00
1055.72	4531.00
1056.14	4552.00
1056.57	4665.00
1056.99	4396.00
1057.41	4458.00
1057.83	4426.00
1058.25	4406.00
1058.67	4314.00
1059.09	4382.00
1059.51	4394.00
1059.93	4335.00
1060.35	4266.00
1060.77	4341.00
1061.19	4389.00
1061.61	4284.00
1062.03	4270.00
1062.45	4228.00
1062.87	4299.00
1063.29	4304.00
1063.71	4249.00
1064.13	4207.00
1064.55	4190.00
1064.97	4275.00
1065.39	4238.00
1065.81	4236.00
1066.23	4183.00
1066.65	4182.00
1067.07	4261.00
1067.49	4163.00
1067.91	4095.00
1068.33	4051.00
1068.75	4152.00
1069.17	4177.00
1069.59	4129.00
1070.00	4072.00
1070.42	4030.00
1070.84	4016.00
1071.26	4012.00
1071.68	3977.00
1072.10	4062.00
1072.52	4060.00
1072.94	3970.00
1073.36	3959.00
1073.78	3997.00
1074.20	4021.00
1074.62	3971.00
1075.03	3961.00
1075.45	4007.00
1075.87	3961.00
1076.29	3947.00
1076.71	3991.00
1077.13	4004.00
1077.55	3858.00
1077.97	3935.00
1078.38	3892.00
1078.80	3925.00
1079.22	3957.00
1079.64	3897.00
1080.06	3861.00
1080.48	3857.00
1080.89	3833.00
1081.31	3815.00
1081.73	3805.00
1082.15	3834.00
1082.57	3858.00
1082.99	3797.00
1083.40	3779.00
1083.82	3827.00
1084.24	3784.00
1084.66	3755.00
1085.08	3819.00
1085.49	3738.00
1085.91	3753.00
1086.33	5112.00
1086.75	3752.00
1087.17	3725.00
1087.58	3732.00
1088.00	3725.00
1088.42	3761.00
1088.84	3726.00
1089.25	3707.00
1089.67	3741.00
1090.09	3658.00
1090.51	3636.00
1090.92	3706.00
1091.34	3642.00
1091.76	3660.00
1092.18	3640.00
1092.59	3620.00
1093.01	3657.00
1093.43	3607.00
1093.84	3551.00
1094.26	3626.00
1094.68	3653.00
1095.10	3553.00
1095.51	3595.00
1095.93	3564.00
1096.35	3643.00
1096.76	3567.00
1097.18	3633.00
1097.60	3550.00
1098.01	3537.00
1098.43	3552.00
1098.85	3554.00
1099.26	3497.00
1099.68	3567.00
1100.10	3495.00
1100.51	3491.00
1100.93	3474.00
1101.35	3508.00
1101.76	3464.00
1102.18	3972.00
1102.60	3469.00
1103.01	3387.00
1103.43	3493.00
1103.84	3435.00
1104.26	3422.00
1104.68	3423.00
1105.09	3367.00
1105.51	3373.00
1105.92	3456.00
1106.34	3357.00
1106.76	3425.00
1107.17	3408.00
1107.59	3430.00
1108.00	3312.00
1108.42	3391.00
1108.83	3307.00
1109.25	3364.00
1109.67	3294.00
1110.08	3352.00
1110.50	3310.00
1110.91	3320.00
1111.33	3306.00
1111.74	3273.00
1112.16	3342.00
1112.57	3331.00
1112.99	3283.00
1113.41	3330.00
1113.82	3252.00
1114.24	3308.00
1114.65	3250.00
1115.07	3179.00
1115.48	3067.00
1115.90	2189.00
1116.31	2212.00
1116.73	2214.00
1117.14	2213.00
>>>>>End Processed Spectral Data<<<<<
