SpectraSuite Data File
++++++++++++++++++++++++++++++++++++
Date: Tue May 29 13:00:20 EEST 2018
User: CanSEE
Dark Spectrum Present: No
Reference Spectrum Present: No
Number of Sampled Component Spectra: 1
Spectrometers: MAYP11278
Integration Time (usec): 250000 (MAYP11278)
Spectra Averaged: 1 (MAYP11278)
Boxcar Smoothing: 0 (MAYP11278)
Correct for Electrical Dark: No (MAYP11278)
Strobe/Lamp Enabled: No (MAYP11278)
Correct for Detector Non-linearity: No (MAYP11278)
Correct for Stray Light: No (MAYP11278)
Number of Pixels in Processed Spectrum: 2068
>>>>>Begin Processed Spectral Data<<<<<
187.82	2322.00
188.30	2225.00
188.78	2203.00
189.26	2201.00
189.73	3000.00
190.21	3161.00
190.69	3285.00
191.17	3340.00
191.64	3339.00
192.12	3304.00
192.60	3322.00
193.07	3286.00
193.55	3329.00
194.03	3297.00
194.51	3344.00
194.98	3324.00
195.46	3339.00
195.94	3298.00
196.42	3289.00
196.89	3445.00
197.37	3353.00
197.85	3300.00
198.32	3307.00
198.80	3331.00
199.28	3376.00
199.76	3351.00
200.23	3311.00
200.71	3292.00
201.19	3344.00
201.66	3326.00
202.14	3305.00
202.62	3297.00
203.09	3327.00
203.57	3267.00
204.05	3336.00
204.53	3402.00
205.00	3288.00
205.48	3279.00
205.96	3360.00
206.43	3295.00
206.91	3313.00
207.39	3435.00
207.86	3330.00
208.34	3327.00
208.82	3322.00
209.29	3371.00
209.77	3338.00
210.25	3327.00
210.72	3317.00
211.20	3347.00
211.68	3314.00
212.15	3300.00
212.63	3377.00
213.11	3352.00
213.58	3312.00
214.06	3380.00
214.53	3332.00
215.01	3398.00
215.49	3366.00
215.96	3362.00
216.44	3380.00
216.92	3369.00
217.39	3312.00
217.87	3316.00
218.35	3366.00
218.82	3260.00
219.30	3312.00
219.77	3271.00
220.25	3283.00
220.73	3398.00
221.20	3290.00
221.68	3314.00
222.15	3302.00
222.63	3327.00
223.11	3286.00
223.58	3379.00
224.06	3317.00
224.53	3286.00
225.01	3264.00
225.49	3302.00
225.96	3291.00
226.44	3298.00
226.91	3347.00
227.39	3333.00
227.87	3329.00
228.34	3338.00
228.82	3331.00
229.29	3276.00
229.77	3316.00
230.24	3301.00
230.72	3313.00
231.20	3354.00
231.67	3310.00
232.15	3285.00
232.62	3253.00
233.10	3282.00
233.57	3316.00
234.05	3431.00
234.53	3295.00
235.00	3302.00
235.48	3331.00
235.95	3300.00
236.43	3377.00
236.90	3396.00
237.38	3307.00
237.85	3344.00
238.33	3299.00
238.80	3329.00
239.28	3283.00
239.75	3314.00
240.23	3341.00
240.71	3386.00
241.18	3297.00
241.66	3302.00
242.13	3366.00
242.61	3358.00
243.08	3266.00
243.56	3305.00
244.03	3330.00
244.51	3360.00
244.98	3286.00
245.46	3376.00
245.93	4972.00
246.41	3263.00
246.88	3329.00
247.36	3339.00
247.83	3378.00
248.31	3334.00
248.78	3272.00
249.26	3334.00
249.73	3318.00
250.21	3351.00
250.68	3334.00
251.16	3343.00
251.63	3389.00
252.10	3397.00
252.58	3333.00
253.05	3413.00
253.53	3357.00
254.00	3350.00
254.48	3384.00
254.95	3330.00
255.43	3392.00
255.90	3298.00
256.38	3351.00
256.85	3360.00
257.33	3378.00
257.80	3437.00
258.27	3358.00
258.75	3322.00
259.22	3321.00
259.70	3368.00
260.17	3346.00
260.65	3338.00
261.12	3306.00
261.59	3436.00
262.07	3300.00
262.54	3397.00
263.02	3345.00
263.49	3301.00
263.97	3390.00
264.44	3381.00
264.91	3335.00
265.39	3348.00
265.86	3350.00
266.34	3383.00
266.81	3347.00
267.28	3313.00
267.76	3367.00
268.23	3365.00
268.71	3275.00
269.18	3262.00
269.65	3318.00
270.13	3355.00
270.60	3350.00
271.08	3326.00
271.55	3350.00
272.02	3262.00
272.50	3301.00
272.97	3279.00
273.44	3333.00
273.92	3457.00
274.39	3367.00
274.87	3395.00
275.34	3297.00
275.81	3315.00
276.29	3306.00
276.76	3325.00
277.23	3251.00
277.71	3258.00
278.18	3212.00
278.65	3376.00
279.13	3242.00
279.60	3318.00
280.07	3563.00
280.55	3552.00
281.02	3606.00
281.50	3401.00
281.97	3443.00
282.44	3339.00
282.91	3384.00
283.39	3390.00
283.86	3363.00
284.33	3307.00
284.81	3404.00
285.28	3362.00
285.75	3371.00
286.23	3370.00
286.70	3279.00
287.17	3367.00
287.65	3426.00
288.12	3323.00
288.59	3373.00
289.07	3271.00
289.54	3396.00
290.01	3332.00
290.48	3354.00
290.96	3342.00
291.43	3389.00
291.90	3421.00
292.38	3309.00
292.85	3392.00
293.32	3309.00
293.79	3374.00
294.27	3348.00
294.74	3325.00
295.21	3365.00
295.69	3361.00
296.16	3426.00
296.63	3407.00
297.10	3376.00
297.58	3380.00
298.05	3376.00
298.52	3388.00
298.99	3430.00
299.47	3378.00
299.94	3379.00
300.41	3342.00
300.88	3380.00
301.36	3355.00
301.83	3403.00
302.30	3332.00
302.77	3397.00
303.25	3402.00
303.72	3329.00
304.19	3325.00
304.66	3325.00
305.13	3356.00
305.61	3350.00
306.08	3384.00
306.55	3393.00
307.02	3346.00
307.49	3324.00
307.97	3351.00
308.44	3325.00
308.91	3373.00
309.38	3366.00
309.86	3317.00
310.33	3319.00
310.80	3360.00
311.27	3312.00
311.74	3378.00
312.21	3372.00
312.69	3434.00
313.16	3339.00
313.63	3362.00
314.10	3351.00
314.57	3311.00
315.05	3346.00
315.52	3389.00
315.99	3354.00
316.46	3334.00
316.93	3395.00
317.40	3363.00
317.88	3488.00
318.35	3348.00
318.82	3385.00
319.29	3317.00
319.76	3414.00
320.23	3424.00
320.70	3381.00
321.18	3372.00
321.65	3318.00
322.12	3329.00
322.59	3421.00
323.06	3369.00
323.53	3473.00
324.00	3300.00
324.48	3355.00
324.95	3341.00
325.42	3351.00
325.89	3356.00
326.36	3347.00
326.83	3415.00
327.30	3404.00
327.77	3443.00
328.24	3417.00
328.72	3352.00
329.19	3376.00
329.66	3366.00
330.13	3362.00
330.60	3377.00
331.07	3392.00
331.54	3477.00
332.01	3382.00
332.48	3471.00
332.95	3446.00
333.43	3418.00
333.90	3442.00
334.37	3433.00
334.84	3420.00
335.31	3518.00
335.78	3336.00
336.25	3395.00
336.72	3395.00
337.19	3404.00
337.66	3359.00
338.13	3380.00
338.60	3424.00
339.07	3415.00
339.54	3315.00
340.01	3275.00
340.49	3326.00
340.96	3354.00
341.43	3362.00
341.90	3294.00
342.37	3362.00
342.84	3358.00
343.31	3335.00
343.78	3290.00
344.25	3307.00
344.72	3275.00
345.19	3330.00
345.66	3360.00
346.13	3288.00
346.60	3308.00
347.07	3378.00
347.54	3320.00
348.01	3369.00
348.48	3319.00
348.95	3247.00
349.42	3324.00
349.89	3376.00
350.36	3316.00
350.83	3286.00
351.30	3362.00
351.77	3419.00
352.24	3334.00
352.71	3281.00
353.18	3325.00
353.65	3361.00
354.12	3351.00
354.59	3325.00
355.06	3326.00
355.53	3388.00
356.00	3317.00
356.47	3385.00
356.94	3265.00
357.41	3435.00
357.88	3335.00
358.35	3281.00
358.82	3274.00
359.28	3305.00
359.75	3315.00
360.22	3380.00
360.69	3380.00
361.16	3309.00
361.63	3298.00
362.10	3351.00
362.57	3327.00
363.04	3304.00
363.51	3421.00
363.98	3387.00
364.45	3312.00
364.92	3374.00
365.39	3321.00
365.86	3287.00
366.32	3364.00
366.79	3327.00
367.26	4318.00
367.73	3318.00
368.20	3296.00
368.67	3379.00
369.14	3296.00
369.61	3378.00
370.08	3350.00
370.55	3307.00
371.02	4067.00
371.48	3343.00
371.95	3302.00
372.42	3299.00
372.89	3323.00
373.36	3329.00
373.83	3279.00
374.30	3308.00
374.77	3347.00
375.23	3302.00
375.70	3430.00
376.17	3338.00
376.64	3310.00
377.11	3354.00
377.58	3366.00
378.05	3349.00
378.51	3356.00
378.98	3360.00
379.45	3355.00
379.92	3369.00
380.39	3456.00
380.86	3377.00
381.33	3392.00
381.79	3397.00
382.26	3317.00
382.73	3394.00
383.20	3356.00
383.67	3377.00
384.14	3336.00
384.60	3540.00
385.07	3337.00
385.54	3352.00
386.01	3349.00
386.48	3431.00
386.94	3303.00
387.41	3299.00
387.88	3395.00
388.35	3383.00
388.82	3391.00
389.28	3341.00
389.75	3370.00
390.22	3378.00
390.69	3354.00
391.16	3360.00
391.62	3373.00
392.09	3366.00
392.56	3332.00
393.03	3370.00
393.50	3478.00
393.96	3350.00
394.43	3390.00
394.90	3401.00
395.37	3387.00
395.83	3540.00
396.30	3312.00
396.77	3416.00
397.24	3426.00
397.70	3365.00
398.17	3379.00
398.64	3395.00
399.11	3382.00
399.57	3449.00
400.04	3388.00
400.51	3423.00
400.98	3378.00
401.44	3421.00
401.91	3447.00
402.38	3443.00
402.84	3453.00
403.31	3456.00
403.78	3474.00
404.25	3492.00
404.71	3577.00
405.18	3545.00
405.65	3448.00
406.12	3533.00
406.58	3500.00
407.05	3559.00
407.52	3491.00
407.98	4213.00
408.45	3525.00
408.92	3503.00
409.38	3638.00
409.85	3518.00
410.32	3574.00
410.78	3591.00
411.25	3636.00
411.72	3624.00
412.18	3569.00
412.65	3662.00
413.12	3604.00
413.59	3650.00
414.05	3688.00
414.52	3706.00
414.98	3654.00
415.45	3718.00
415.92	3661.00
416.38	3718.00
416.85	3765.00
417.32	3709.00
417.78	3668.00
418.25	3723.00
418.72	3704.00
419.18	3771.00
419.65	3695.00
420.12	3741.00
420.58	3685.00
421.05	3719.00
421.51	3739.00
421.98	3727.00
422.45	3714.00
422.91	3688.00
423.38	3758.00
423.85	3773.00
424.31	3774.00
424.78	3753.00
425.24	3739.00
425.71	3827.00
426.18	3750.00
426.64	3833.00
427.11	3774.00
427.57	3754.00
428.04	3724.00
428.51	3796.00
428.97	3757.00
429.44	3707.00
429.90	3689.00
430.37	3815.00
430.83	3631.00
431.30	3748.00
431.77	3855.00
432.23	3830.00
432.70	3769.00
433.16	3774.00
433.63	3804.00
434.09	3769.00
434.56	3834.00
435.03	3815.00
435.49	3902.00
435.96	3872.00
436.42	3865.00
436.89	3911.00
437.35	3872.00
437.82	3856.00
438.28	3837.00
438.75	3844.00
439.21	4032.00
439.68	3934.00
440.14	3904.00
440.61	3915.00
441.07	3941.00
441.54	3890.00
442.00	4076.00
442.47	3920.00
442.94	4031.00
443.40	4041.00
443.87	3966.00
444.33	4133.00
444.80	4060.00
445.26	4010.00
445.73	4011.00
446.19	4015.00
446.65	4059.00
447.12	4136.00
447.58	4080.00
448.05	4166.00
448.51	4202.00
448.98	4146.00
449.44	4147.00
449.91	4189.00
450.37	4248.00
450.84	4259.00
451.30	4249.00
451.77	4327.00
452.23	4207.00
452.70	4293.00
453.16	4298.00
453.62	4287.00
454.09	4320.00
454.55	4290.00
455.02	4269.00
455.48	4362.00
455.95	4444.00
456.41	4386.00
456.88	4427.00
457.34	4361.00
457.80	4433.00
458.27	4366.00
458.73	4418.00
459.20	4376.00
459.66	4373.00
460.13	4383.00
460.59	4377.00
461.05	4447.00
461.52	4436.00
461.98	4394.00
462.45	4427.00
462.91	4441.00
463.37	4396.00
463.84	4460.00
464.30	4388.00
464.76	4348.00
465.23	4373.00
465.69	4403.00
466.16	4386.00
466.62	4285.00
467.08	4340.00
467.55	4392.00
468.01	4358.00
468.48	4385.00
468.94	4386.00
469.40	4320.00
469.87	4402.00
470.33	4347.00
470.79	4340.00
471.26	4381.00
471.72	4423.00
472.18	4408.00
472.65	4396.00
473.11	4414.00
473.57	4472.00
474.04	4387.00
474.50	4469.00
474.96	4374.00
475.43	4473.00
475.89	4476.00
476.35	4455.00
476.82	4461.00
477.28	4516.00
477.74	4556.00
478.21	4553.00
478.67	4567.00
479.13	4548.00
479.59	4567.00
480.06	4545.00
480.52	4559.00
480.98	4602.00
481.45	4599.00
481.91	4579.00
482.37	4574.00
482.84	4555.00
483.30	4537.00
483.76	4537.00
484.22	4625.00
484.69	4550.00
485.15	4517.00
485.61	4343.00
486.07	4371.00
486.54	4366.00
487.00	4559.00
487.46	4509.00
487.92	4531.00
488.39	4593.00
488.85	4639.00
489.31	4743.00
489.77	4766.00
490.24	4746.00
490.70	4704.00
491.16	4719.00
491.62	4673.00
492.09	4647.00
492.55	4872.00
493.01	4956.00
493.47	4885.00
493.94	4910.00
494.40	4977.00
494.86	4937.00
495.32	5002.00
495.78	5051.00
496.25	5090.00
496.71	5191.00
497.17	5314.00
497.63	5254.00
498.09	5167.00
498.56	5294.00
499.02	5346.00
499.48	5517.00
499.94	5402.00
500.40	5463.00
500.87	5461.00
501.33	5552.00
501.79	5630.00
502.25	5807.00
502.71	6102.00
503.17	6004.00
503.64	6001.00
504.10	6083.00
504.56	6287.00
505.02	6430.00
505.48	6620.00
505.94	6795.00
506.40	6830.00
506.87	6908.00
507.33	7000.00
507.79	7015.00
508.25	7202.00
508.71	7510.00
509.17	7560.00
509.63	7748.00
510.10	7847.00
510.56	8022.00
511.02	8358.00
511.48	8560.00
511.94	8645.00
512.40	8771.00
512.86	8923.00
513.32	9142.00
513.78	9118.00
514.25	9650.00
514.71	10303.00
515.17	9934.00
515.63	10225.00
516.09	10105.00
516.55	9886.00
517.01	10006.00
517.47	10552.00
517.93	10811.00
518.39	11156.00
518.85	11532.00
519.32	12039.00
519.78	12450.00
520.24	12698.00
520.70	12990.00
521.16	13493.00
521.62	13847.00
522.08	13930.00
522.54	14119.00
523.00	14353.00
523.46	14939.00
523.92	15386.00
524.38	15853.00
524.84	15750.00
525.30	16202.00
525.76	16114.00
526.22	15586.00
526.68	15283.00
527.14	15988.00
527.60	16734.00
528.06	17241.00
528.52	17833.00
528.98	18255.00
529.44	18029.00
529.90	18251.00
530.36	18767.00
530.82	19058.00
531.28	19228.00
531.74	18994.00
532.20	18668.00
532.66	18510.00
533.12	18996.00
533.58	19421.00
534.04	19389.00
534.50	19732.00
534.96	20001.00
535.42	20509.00
535.88	20347.00
536.34	20047.00
536.80	19798.00
537.26	20150.00
537.72	20670.00
538.18	20631.00
538.64	20509.00
539.10	20381.00
539.56	20327.00
540.02	19941.00
540.48	20043.00
540.94	20086.00
541.40	20544.00
541.86	20853.00
542.32	20884.00
542.78	20599.00
543.24	20825.00
543.69	21252.00
544.15	21433.00
544.61	21314.00
545.07	21453.00
545.53	21434.00
545.99	21556.00
546.45	21576.00
546.91	21592.00
547.37	21344.00
547.83	21395.00
548.29	21669.00
548.74	21921.00
549.20	22011.00
549.66	22156.00
550.12	22063.00
550.58	21998.00
551.04	22195.00
551.50	22312.00
551.96	22355.00
552.42	22088.00
552.87	21997.00
553.33	22307.00
553.79	22353.00
554.25	22455.00
554.71	22584.00
555.17	22495.00
555.63	22431.00
556.08	22216.00
556.54	21913.00
557.00	21802.00
557.46	21688.00
557.92	21981.00
558.38	21393.00
558.83	20924.00
559.29	21326.00
559.75	21182.00
560.21	21417.00
560.67	21588.00
561.13	21574.00
561.58	20966.00
562.04	20943.00
562.50	21206.00
562.96	21211.00
563.42	21011.00
563.87	20836.00
564.33	20675.00
564.79	20675.00
565.25	20104.00
565.71	19779.00
566.16	19810.00
566.62	19732.00
567.08	19829.00
567.54	19754.00
568.00	19433.00
568.45	19010.00
568.91	18815.00
569.37	18964.00
569.83	18788.00
570.28	18306.00
570.74	17927.00
571.20	17953.00
571.66	18045.00
572.11	18194.00
572.57	18034.00
573.03	17844.00
573.49	17832.00
573.94	17567.00
574.40	17486.00
574.86	17205.00
575.32	16854.00
575.77	16719.00
576.23	16786.00
576.69	16678.00
577.15	16573.00
577.60	16383.00
578.06	16049.00
578.52	16070.00
578.97	16093.00
579.43	16060.00
579.89	16043.00
580.34	15957.00
580.80	15853.00
581.26	16018.00
581.72	15672.00
582.17	15908.00
582.63	15774.00
583.09	15511.00
583.54	15533.00
584.00	15497.00
584.46	15525.00
584.91	15151.00
585.37	15127.00
585.83	14787.00
586.28	14827.00
586.74	14897.00
587.20	14943.00
587.65	14786.00
588.11	14370.00
588.57	13881.00
589.02	13246.00
589.48	13175.00
589.94	13695.00
590.39	14016.00
590.85	13978.00
591.30	14024.00
591.76	13989.00
592.22	13780.00
592.67	14015.00
593.13	13904.00
593.59	14005.00
594.04	13899.00
594.50	13716.00
594.95	13674.00
595.41	13735.00
595.87	13791.00
596.32	13874.00
596.78	13886.00
597.23	13767.00
597.69	13611.00
598.15	13542.00
598.60	13588.00
599.06	13732.00
599.51	13640.00
599.97	13649.00
600.43	13653.00
600.88	13513.00
601.34	13438.00
601.79	13282.00
602.25	13464.00
602.70	13422.00
603.16	13447.00
603.61	13562.00
604.07	13413.00
604.53	13422.00
604.98	13388.00
605.44	13271.00
605.89	13154.00
606.35	13061.00
606.80	13138.00
607.26	12994.00
607.71	12796.00
608.17	12800.00
608.62	12753.00
609.08	12648.00
609.53	12532.00
609.99	12315.00
610.44	12212.00
610.90	12415.00
611.35	12308.00
611.81	12194.00
612.26	12079.00
612.72	11975.00
613.17	12057.00
613.63	11644.00
614.08	11553.00
614.54	11595.00
614.99	11661.00
615.45	11587.00
615.90	11337.00
616.36	11098.00
616.81	11173.00
617.27	11221.00
617.72	11244.00
618.18	11307.00
618.63	11256.00
619.09	11056.00
619.54	11170.00
619.99	11217.00
620.45	11052.00
620.90	11153.00
621.36	10914.00
621.81	10974.00
622.27	10902.00
622.72	10781.00
623.18	10698.00
623.63	10735.00
624.08	10637.00
624.54	10589.00
624.99	10575.00
625.45	10546.00
625.90	10570.00
626.35	10490.00
626.81	10751.00
627.26	10587.00
627.72	10351.00
628.17	10388.00
628.62	10418.00
629.08	10513.00
629.53	10483.00
629.99	10247.00
630.44	10501.00
630.89	10498.00
631.35	10485.00
631.80	10383.00
632.26	10431.00
632.71	10515.00
633.16	10412.00
633.62	10344.00
634.07	10363.00
634.52	10366.00
634.98	10323.00
635.43	10232.00
635.88	10067.00
636.34	10064.00
636.79	10093.00
637.24	10028.00
637.70	10104.00
638.15	9960.00
638.60	9908.00
639.06	9702.00
639.51	9561.00
639.96	9363.00
640.42	9383.00
640.87	9306.00
641.32	9197.00
641.78	9002.00
642.23	9020.00
642.68	8958.00
643.14	8828.00
643.59	8656.00
644.04	8560.00
644.49	8528.00
644.95	8346.00
645.40	8285.00
645.85	8093.00
646.31	8047.00
646.76	7973.00
647.21	7963.00
647.66	7771.00
648.12	7682.00
648.57	7568.00
649.02	7699.00
649.47	7444.00
649.93	7575.00
650.38	7474.00
650.83	7445.00
651.28	7298.00
651.74	7333.00
652.19	7366.00
652.64	7278.00
653.09	7233.00
653.55	7255.00
654.00	7223.00
654.45	7169.00
654.90	7082.00
655.35	6871.00
655.81	6675.00
656.26	6222.00
656.71	6388.00
657.16	6584.00
657.62	6693.00
658.07	6700.00
658.52	6728.00
658.97	6591.00
659.42	6698.00
659.88	6417.00
660.33	6443.00
660.78	6417.00
661.23	6255.00
661.68	6307.00
662.13	6199.00
662.59	6053.00
663.04	6064.00
663.49	5912.00
663.94	5911.00
664.39	5800.00
664.84	5793.00
665.30	5742.00
665.75	5652.00
666.20	5617.00
666.65	5504.00
667.10	5634.00
667.55	5495.00
668.00	5407.00
668.46	5432.00
668.91	5321.00
669.36	5429.00
669.81	5239.00
670.26	5270.00
670.71	5316.00
671.16	5190.00
671.61	5213.00
672.06	5270.00
672.52	5126.00
672.97	5215.00
673.42	5223.00
673.87	5248.00
674.32	5078.00
674.77	5084.00
675.22	5082.00
675.67	5080.00
676.12	5143.00
676.57	5070.00
677.02	5090.00
677.47	5097.00
677.93	5272.00
678.38	5098.00
678.83	5094.00
679.28	5159.00
679.73	5134.00
680.18	5162.00
680.63	5232.00
681.08	5134.00
681.53	5221.00
681.98	5259.00
682.43	5296.00
682.88	5375.00
683.33	5499.00
683.78	5473.00
684.23	5589.00
684.68	5734.00
685.13	5787.00
685.58	5907.00
686.03	6003.00
686.48	5834.00
686.93	5766.00
687.38	5746.00
687.83	6160.00
688.28	6508.00
688.73	6845.00
689.18	7021.00
689.63	7189.00
690.08	7592.00
690.53	8063.00
690.98	8414.00
691.43	8886.00
691.88	9371.00
692.33	9863.00
692.78	10388.00
693.23	10782.00
693.68	11295.00
694.13	11856.00
694.58	12448.00
695.03	13348.00
695.48	13825.00
695.93	14496.00
696.38	15444.00
696.83	16249.00
697.28	16922.00
697.72	17333.00
698.17	17965.00
698.62	18633.00
699.07	19218.00
699.52	19969.00
699.97	20658.00
700.42	21203.00
700.87	21910.00
701.32	22755.00
701.77	22959.00
702.22	23702.00
702.67	24471.00
703.11	25299.00
703.56	26127.00
704.01	27018.00
704.46	28037.00
704.91	28701.00
705.36	29191.00
705.81	29567.00
706.26	30116.00
706.70	30824.00
707.15	31370.00
707.60	32262.00
708.05	32837.00
708.50	33379.00
708.95	33805.00
709.40	34234.00
709.84	35053.00
710.29	35596.00
710.74	35924.00
711.19	36380.00
711.64	37095.00
712.09	37698.00
712.53	37940.00
712.98	38646.00
713.43	38991.00
713.88	39464.00
714.33	39604.00
714.78	39655.00
715.22	39934.00
715.67	40502.00
716.12	40033.00
716.57	38782.00
717.02	37480.00
717.46	36382.00
717.91	36312.00
718.36	35639.00
718.81	35297.00
719.26	35545.00
719.70	36072.00
720.15	36700.00
720.60	38253.00
721.05	40871.00
721.49	43058.00
721.94	43967.00
722.39	44132.00
722.84	43463.00
723.28	41872.00
723.73	41269.00
724.18	41344.00
724.63	42169.00
725.07	42274.00
725.52	42965.00
725.97	43744.00
726.42	44078.00
726.86	44949.00
727.31	44375.00
727.76	44390.00
728.21	45465.00
728.65	45733.00
729.10	45108.00
729.55	46320.00
729.99	47406.00
730.44	47738.00
730.89	48335.00
731.33	49121.00
731.78	50228.00
732.23	51602.00
732.68	52212.00
733.12	53087.00
733.57	54106.00
734.02	55188.00
734.46	55750.00
734.91	55711.00
735.36	56115.00
735.80	56474.00
736.25	56518.00
736.70	56562.00
737.14	57494.00
737.59	57940.00
738.04	58050.00
738.48	57332.00
738.93	57356.00
739.37	58225.00
739.82	58934.00
740.27	59557.00
740.71	59516.00
741.16	59682.00
741.61	59691.00
742.05	59791.00
742.50	60076.00
742.94	60527.00
743.39	61004.00
743.84	61314.00
744.28	61009.00
744.73	61013.00
745.18	61800.00
745.62	62128.00
746.07	62115.00
746.51	62277.00
746.96	62098.00
747.40	61677.00
747.85	61584.00
748.30	61516.00
748.74	61396.00
749.19	61229.00
749.63	61399.00
750.08	61883.00
750.52	61414.00
750.97	61462.00
751.42	61366.00
751.86	61483.00
752.31	61316.00
752.75	61217.00
753.20	61114.00
753.64	61131.00
754.09	61274.00
754.53	61344.00
754.98	61478.00
755.42	61134.00
755.87	61291.00
756.31	60843.00
756.76	60174.00
757.20	59905.00
757.65	59597.00
758.09	58724.00
758.54	57132.00
758.98	52253.00
759.43	41588.00
759.87	29768.00
760.32	21567.00
760.76	20359.00
761.21	24690.00
761.65	31411.00
762.10	33650.00
762.54	32054.00
762.99	30163.00
763.43	30696.00
763.88	32540.00
764.32	35450.00
764.77	38583.00
765.21	41561.00
765.66	44004.00
766.10	46451.00
766.54	48868.00
766.99	51145.00
767.43	53092.00
767.88	54759.00
768.32	55647.00
768.77	56595.00
769.21	57330.00
769.66	58170.00
770.10	58793.00
770.54	59356.00
770.99	59335.00
771.43	59129.00
771.88	58772.00
772.32	58924.00
772.76	58766.00
773.21	59027.00
773.65	58758.00
774.10	58360.00
774.54	58134.00
774.98	58492.00
775.43	58932.00
775.87	59716.00
776.31	59787.00
776.76	59672.00
777.20	59209.00
777.65	58781.00
778.09	58354.00
778.53	58104.00
778.98	58224.00
779.42	57868.00
779.86	57712.00
780.31	57809.00
780.75	58166.00
781.19	58421.00
781.64	58561.00
782.08	58854.00
782.52	58270.00
782.97	57633.00
783.41	57439.00
783.85	57057.00
784.30	56392.00
784.74	56494.00
785.18	56172.00
785.63	56505.00
786.07	56496.00
786.51	56681.00
786.95	56812.00
787.40	56465.00
787.84	56116.00
788.28	55709.00
788.73	55122.00
789.17	54679.00
789.61	54061.00
790.05	53997.00
790.50	53663.00
790.94	53503.00
791.38	53383.00
791.82	53720.00
792.27	53584.00
792.71	53837.00
793.15	53921.00
793.59	53758.00
794.04	53188.00
794.48	52721.00
794.92	52464.00
795.36	52070.00
795.81	51849.00
796.25	51573.00
796.69	51984.00
797.13	52440.00
797.57	53053.00
798.02	53316.00
798.46	53727.00
798.90	53318.00
799.34	52716.00
799.79	51972.00
800.23	51050.00
800.67	50701.00
801.11	50644.00
801.55	50507.00
801.99	50354.00
802.44	50470.00
802.88	50748.00
803.32	51245.00
803.76	51675.00
804.20	51537.00
804.64	51347.00
805.09	51250.00
805.53	51183.00
805.97	50658.00
806.41	50022.00
806.85	49757.00
807.29	49224.00
807.74	49091.00
808.18	49108.00
808.62	48876.00
809.06	49091.00
809.50	49246.00
809.94	49401.00
810.38	49364.00
810.82	49312.00
811.27	48824.00
811.71	47989.00
812.15	47260.00
812.59	45779.00
813.03	44692.00
813.47	43293.00
813.91	42022.00
814.35	41373.00
814.79	41046.00
815.23	40947.00
815.67	40408.00
816.12	40568.00
816.56	40173.00
817.00	40441.00
817.44	40665.00
817.88	41082.00
818.32	40082.00
818.76	40321.00
819.20	39819.00
819.64	40512.00
820.08	41227.00
820.52	42171.00
820.96	43155.00
821.40	42460.00
821.84	41356.00
822.28	39009.00
822.72	38429.00
823.16	38211.00
823.60	39799.00
824.04	42700.00
824.48	43553.00
824.92	43604.00
825.36	43570.00
825.80	42889.00
826.24	42504.00
826.68	42539.00
827.12	42088.00
827.56	41408.00
828.00	41237.00
828.44	41609.00
828.88	42012.00
829.32	42475.00
829.76	42325.00
830.20	43183.00
830.64	42554.00
831.08	42302.00
831.52	41812.00
831.96	41336.00
832.40	40722.00
832.84	41442.00
833.28	41756.00
833.72	42431.00
834.16	43277.00
834.60	44489.00
835.04	45062.00
835.48	45186.00
835.91	45061.00
836.35	44818.00
836.79	44466.00
837.23	44235.00
837.67	43817.00
838.11	43477.00
838.55	43615.00
838.99	43461.00
839.43	44090.00
839.87	44582.00
840.30	45208.00
840.74	45880.00
841.18	46223.00
841.62	46354.00
842.06	46209.00
842.50	46093.00
842.94	45542.00
843.38	44700.00
843.81	43870.00
844.25	43651.00
844.69	43443.00
845.13	43264.00
845.57	43586.00
846.01	43776.00
846.45	44126.00
846.88	44801.00
847.32	45336.00
847.76	45874.00
848.20	46182.00
848.64	45464.00
849.08	44453.00
849.51	44341.00
849.95	43158.00
850.39	43030.00
850.83	43732.00
851.27	43279.00
851.70	42871.00
852.14	42381.00
852.58	42008.00
853.02	40532.00
853.46	39460.00
853.89	39309.00
854.33	39176.00
854.77	40686.00
855.21	43474.00
855.65	44624.00
856.08	45089.00
856.52	45224.00
856.96	44628.00
857.40	43954.00
857.83	43266.00
858.27	42664.00
858.71	41637.00
859.15	41816.00
859.58	42020.00
860.02	42511.00
860.46	43144.00
860.89	43966.00
861.33	44410.00
861.77	44740.00
862.21	45124.00
862.64	45038.00
863.08	44834.00
863.52	44327.00
863.95	43620.00
864.39	42533.00
864.83	41075.00
865.27	39372.00
865.70	39006.00
866.14	38314.00
866.58	37948.00
867.01	40026.00
867.45	41710.00
867.89	42625.00
868.32	43535.00
868.76	43928.00
869.20	43747.00
869.63	44053.00
870.07	43511.00
870.51	42313.00
870.94	41473.00
871.38	40525.00
871.82	39860.00
872.25	39752.00
872.69	39721.00
873.13	40014.00
873.56	40733.00
874.00	41295.00
874.43	41839.00
874.87	42520.00
875.31	42821.00
875.74	42928.00
876.18	43270.00
876.61	42922.00
877.05	42664.00
877.49	42061.00
877.92	41331.00
878.36	40725.00
878.79	40181.00
879.23	39320.00
879.67	38627.00
880.10	38716.00
880.54	39055.00
880.97	39334.00
881.41	40379.00
881.84	41650.00
882.28	42544.00
882.72	43168.00
883.15	43520.00
883.59	43446.00
884.02	43199.00
884.46	42731.00
884.89	42072.00
885.33	41245.00
885.76	40008.00
886.20	39336.00
886.63	38721.00
887.07	38346.00
887.50	38486.00
887.94	38736.00
888.37	39088.00
888.81	39829.00
889.24	40279.00
889.68	40686.00
890.11	41327.00
890.55	41538.00
890.98	41903.00
891.42	41994.00
891.85	41617.00
892.29	41059.00
892.72	39894.00
893.16	38556.00
893.59	37806.00
894.03	36426.00
894.46	35388.00
894.90	34297.00
895.33	32980.00
895.77	32886.00
896.20	32673.00
896.63	32753.00
897.07	33225.00
897.50	32839.00
897.94	32788.00
898.37	34217.00
898.81	32330.00
899.24	31544.00
899.68	33250.00
900.11	32694.00
900.54	31486.00
900.98	31226.00
901.41	30646.00
901.85	30929.00
902.28	31368.00
902.71	31634.00
903.15	32720.00
903.58	33969.00
904.02	34125.00
904.45	33939.00
904.88	34232.00
905.32	33550.00
905.75	33614.00
906.18	32548.00
906.62	32755.00
907.05	31775.00
907.48	32028.00
907.92	31334.00
908.35	31412.00
908.79	30762.00
909.22	30456.00
909.65	29900.00
910.09	29960.00
910.52	29450.00
910.95	29647.00
911.38	30364.00
911.82	28887.00
912.25	29573.00
912.68	30239.00
913.12	30325.00
913.55	30364.00
913.98	31401.00
914.42	32369.00
914.85	32825.00
915.28	31226.00
915.72	30578.00
916.15	30321.00
916.58	30136.00
917.01	29708.00
917.45	28706.00
917.88	29561.00
918.31	29938.00
918.74	31232.00
919.18	31873.00
919.61	31661.00
920.04	32500.00
920.47	32722.00
920.91	33102.00
921.34	32952.00
921.77	33136.00
922.20	33701.00
922.64	33664.00
923.07	33264.00
923.50	32892.00
923.93	32385.00
924.37	31815.00
924.80	31092.00
925.23	30744.00
925.66	29717.00
926.09	28307.00
926.53	27804.00
926.96	26860.00
927.39	25722.00
927.82	24571.00
928.25	23613.00
928.69	23149.00
929.12	22715.00
929.55	21624.00
929.98	20763.00
930.41	19484.00
930.84	18298.00
931.28	16884.00
931.71	15667.00
932.14	13970.00
932.57	13124.00
933.00	12620.00
933.43	11921.00
933.86	11503.00
934.30	10687.00
934.73	12159.00
935.16	11810.00
935.59	10827.00
936.02	11555.00
936.45	11278.00
936.88	11140.00
937.31	12421.00
937.75	13056.00
938.18	13613.00
938.61	14246.00
939.04	15039.00
939.47	14976.00
939.90	13800.00
940.33	13251.00
940.76	12507.00
941.19	11776.00
941.62	11394.00
942.05	11524.00
942.48	10167.00
942.91	10024.00
943.35	10895.00
943.78	10249.00
944.21	9904.00
944.64	10820.00
945.07	11158.00
945.50	10982.00
945.93	11214.00
946.36	11755.00
946.79	12084.00
947.22	12684.00
947.65	12482.00
948.08	11843.00
948.51	12585.00
948.94	13117.00
949.37	12444.00
949.80	11803.00
950.23	11985.00
950.66	12710.00
951.09	12684.00
951.52	12140.00
951.95	12203.00
952.38	12760.00
952.81	13400.00
953.24	14322.00
953.67	14670.00
954.10	14383.00
954.53	15014.00
954.96	14826.00
955.39	15258.00
955.82	16139.00
956.25	15610.00
956.68	15699.00
957.11	16318.00
957.53	15767.00
957.96	15479.00
958.39	15399.00
958.82	14655.00
959.25	15056.00
959.68	15891.00
960.11	16263.00
960.54	16391.00
960.97	17262.00
961.40	18187.00
961.83	17985.00
962.26	17942.00
962.68	19721.00
963.11	20026.00
963.54	20001.00
963.97	20430.00
964.40	20149.00
964.83	20627.00
965.26	20753.00
965.69	20650.00
966.11	20081.00
966.54	20447.00
966.97	21276.00
967.40	21790.00
967.83	21728.00
968.26	21809.00
968.69	22026.00
969.11	22178.00
969.54	22214.00
969.97	22084.00
970.40	22748.00
970.83	22620.00
971.26	22874.00
971.68	22972.00
972.11	23054.00
972.54	23504.00
972.97	23428.00
973.40	22827.00
973.82	22683.00
974.25	22755.00
974.68	22201.00
975.11	22035.00
975.54	21623.00
975.96	21288.00
976.39	21288.00
976.82	21518.00
977.25	21256.00
977.67	21087.00
978.10	21410.00
978.53	21661.00
978.96	22248.00
979.38	22666.00
979.81	23022.00
980.24	23749.00
980.67	24261.00
981.09	24513.00
981.52	24684.00
981.95	25032.00
982.38	24967.00
982.80	25171.00
983.23	25300.00
983.66	25296.00
984.08	25118.00
984.51	24821.00
984.94	24512.00
985.37	24165.00
985.79	23825.00
986.22	23272.00
986.65	22907.00
987.07	22906.00
987.50	22694.00
987.93	22842.00
988.35	22923.00
988.78	23197.00
989.21	23247.00
989.63	23618.00
990.06	24080.00
990.49	24274.00
990.91	24788.00
991.34	25002.00
991.77	24907.00
992.19	24894.00
992.62	24879.00
993.05	24757.00
993.47	24386.00
993.90	24003.00
994.32	23542.00
994.75	23083.00
995.18	22843.00
995.60	22738.00
996.03	22309.00
996.45	21967.00
996.88	21829.00
997.31	21790.00
997.73	21866.00
998.16	21737.00
998.58	22180.00
999.01	22133.00
999.44	22309.00
999.86	22773.00
1000.29	22888.00
1000.71	22964.00
1001.14	23138.00
1001.56	23005.00
1001.99	22701.00
1002.41	22443.00
1002.84	21942.00
1003.27	21317.00
1003.69	21012.00
1004.12	20581.00
1004.54	20237.00
1004.97	19932.00
1005.39	19749.00
1005.82	19639.00
1006.24	19442.00
1006.67	19293.00
1007.09	19364.00
1007.52	19341.00
1007.94	19334.00
1008.37	19480.00
1008.79	19472.00
1009.22	19720.00
1009.64	19541.00
1010.07	19709.00
1010.49	19764.00
1010.92	19766.00
1011.34	19839.00
1011.77	19783.00
1012.19	19660.00
1012.62	19497.00
1013.04	19024.00
1013.46	18903.00
1013.89	18229.00
1014.31	18030.00
1014.74	17630.00
1015.16	17431.00
1015.59	17322.00
1016.01	17355.00
1016.44	17476.00
1016.86	18504.00
1017.28	17704.00
1017.71	17766.00
1018.13	18058.00
1018.56	18193.00
1018.98	18264.00
1019.40	18326.00
1019.83	18507.00
1020.25	18581.00
1020.68	18614.00
1021.10	18661.00
1021.52	19007.00
1021.95	19126.00
1022.37	19018.00
1022.79	18876.00
1023.22	18695.00
1023.64	18508.00
1024.07	18249.00
1024.49	17999.00
1024.91	17675.00
1025.34	17513.00
1025.76	17527.00
1026.18	17279.00
1026.61	17036.00
1027.03	17042.00
1027.45	17174.00
1027.88	17178.00
1028.30	17280.00
1028.72	17344.00
1029.15	17521.00
1029.57	17592.00
1029.99	17699.00
1030.41	17406.00
1030.84	17603.00
1031.26	17445.00
1031.68	17186.00
1032.11	17132.00
1032.53	17070.00
1032.95	16742.00
1033.37	16442.00
1033.80	16213.00
1034.22	15725.00
1034.64	15633.00
1035.06	15253.00
1035.49	15127.00
1035.91	15076.00
1036.33	14768.00
1036.75	14780.00
1037.18	14633.00
1037.60	14587.00
1038.02	14564.00
1038.44	14583.00
1038.87	14518.00
1039.29	14683.00
1039.71	14608.00
1040.13	14614.00
1040.55	14599.00
1040.98	14622.00
1041.40	14555.00
1041.82	14338.00
1042.24	14256.00
1042.66	14101.00
1043.09	13747.00
1043.51	13617.00
1043.93	13363.00
1044.35	13148.00
1044.77	13023.00
1045.20	12713.00
1045.62	12560.00
1046.04	12399.00
1046.46	12169.00
1046.88	12230.00
1047.30	11941.00
1047.72	12007.00
1048.15	11902.00
1048.57	11709.00
1048.99	11808.00
1049.41	11862.00
1049.83	11699.00
1050.25	11699.00
1050.67	11735.00
1051.09	11599.00
1051.52	11596.00
1051.94	11474.00
1052.36	11421.00
1052.78	11292.00
1053.20	11327.00
1053.62	11228.00
1054.04	10983.00
1054.46	11031.00
1054.88	10977.00
1055.30	10665.00
1055.72	10596.00
1056.14	10426.00
1056.57	10453.00
1056.99	10155.00
1057.41	9936.00
1057.83	9951.00
1058.25	9771.00
1058.67	9609.00
1059.09	9538.00
1059.51	9471.00
1059.93	9371.00
1060.35	9227.00
1060.77	9200.00
1061.19	9233.00
1061.61	9168.00
1062.03	9000.00
1062.45	8915.00
1062.87	9006.00
1063.29	8982.00
1063.71	8868.00
1064.13	8861.00
1064.55	8821.00
1064.97	8783.00
1065.39	8654.00
1065.81	8598.00
1066.23	8491.00
1066.65	8370.00
1067.07	8397.00
1067.49	8252.00
1067.91	8150.00
1068.33	8070.00
1068.75	8092.00
1069.17	8012.00
1069.59	7931.00
1070.00	7827.00
1070.42	7758.00
1070.84	7634.00
1071.26	7626.00
1071.68	7500.00
1072.10	7578.00
1072.52	7510.00
1072.94	7436.00
1073.36	7415.00
1073.78	7346.00
1074.20	7355.00
1074.62	7361.00
1075.03	7327.00
1075.45	7239.00
1075.87	7369.00
1076.29	7284.00
1076.71	7273.00
1077.13	7152.00
1077.55	7055.00
1077.97	7028.00
1078.38	6912.00
1078.80	6861.00
1079.22	6884.00
1079.64	6720.00
1080.06	6623.00
1080.48	6595.00
1080.89	6623.00
1081.31	6465.00
1081.73	6446.00
1082.15	6372.00
1082.57	6306.00
1082.99	6271.00
1083.40	6136.00
1083.82	6272.00
1084.24	6161.00
1084.66	6125.00
1085.08	6173.00
1085.49	6041.00
1085.91	6126.00
1086.33	7153.00
1086.75	6113.00
1087.17	6018.00
1087.58	5976.00
1088.00	5930.00
1088.42	6005.00
1088.84	5798.00
1089.25	5800.00
1089.67	5740.00
1090.09	5671.00
1090.51	5582.00
1090.92	5600.00
1091.34	5481.00
1091.76	5453.00
1092.18	5298.00
1092.59	5341.00
1093.01	5285.00
1093.43	5258.00
1093.84	5148.00
1094.26	5159.00
1094.68	5137.00
1095.10	5086.00
1095.51	5069.00
1095.93	5006.00
1096.35	5027.00
1096.76	5011.00
1097.18	4964.00
1097.60	4856.00
1098.01	4902.00
1098.43	4833.00
1098.85	4811.00
1099.26	4751.00
1099.68	4724.00
1100.10	4634.00
1100.51	4620.00
1100.93	4519.00
1101.35	4542.00
1101.76	4468.00
1102.18	4842.00
1102.60	4413.00
1103.01	4288.00
1103.43	4346.00
1103.84	4366.00
1104.26	4269.00
1104.68	4279.00
1105.09	4201.00
1105.51	4194.00
1105.92	4234.00
1106.34	4082.00
1106.76	4117.00
1107.17	4067.00
1107.59	4046.00
1108.00	3924.00
1108.42	3900.00
1108.83	3844.00
1109.25	3853.00
1109.67	3799.00
1110.08	3831.00
1110.50	3789.00
1110.91	3742.00
1111.33	3679.00
1111.74	3625.00
1112.16	3634.00
1112.57	3636.00
1112.99	3549.00
1113.41	3526.00
1113.82	3444.00
1114.24	3443.00
1114.65	3344.00
1115.07	3225.00
1115.48	3146.00
1115.90	2182.00
1116.31	2203.00
1116.73	2202.00
1117.14	2206.00
>>>>>End Processed Spectral Data<<<<<
