SpectraSuite Data File
++++++++++++++++++++++++++++++++++++
Date: Tue May 29 12:59:25 EEST 2018
User: CanSEE
Dark Spectrum Present: No
Reference Spectrum Present: No
Number of Sampled Component Spectra: 1
Spectrometers: MAYP11278
Integration Time (usec): 250000 (MAYP11278)
Spectra Averaged: 1 (MAYP11278)
Boxcar Smoothing: 0 (MAYP11278)
Correct for Electrical Dark: No (MAYP11278)
Strobe/Lamp Enabled: No (MAYP11278)
Correct for Detector Non-linearity: No (MAYP11278)
Correct for Stray Light: No (MAYP11278)
Number of Pixels in Processed Spectrum: 2068
>>>>>Begin Processed Spectral Data<<<<<
187.82	2320.00
188.30	2229.00
188.78	2197.00
189.26	2200.00
189.73	2991.00
190.21	3088.00
190.69	3188.00
191.17	3189.00
191.64	3279.00
192.12	3212.00
192.60	3215.00
193.07	3196.00
193.55	3249.00
194.03	3231.00
194.51	3272.00
194.98	3212.00
195.46	3254.00
195.94	3230.00
196.42	3206.00
196.89	3316.00
197.37	3239.00
197.85	3213.00
198.32	3217.00
198.80	3202.00
199.28	3259.00
199.76	3220.00
200.23	3225.00
200.71	3224.00
201.19	3288.00
201.66	3266.00
202.14	3265.00
202.62	3184.00
203.09	3275.00
203.57	3148.00
204.05	3287.00
204.53	3279.00
205.00	3211.00
205.48	3231.00
205.96	3297.00
206.43	3221.00
206.91	3274.00
207.39	3312.00
207.86	3223.00
208.34	3253.00
208.82	3258.00
209.29	3255.00
209.77	3281.00
210.25	3239.00
210.72	3239.00
211.20	3257.00
211.68	3240.00
212.15	3205.00
212.63	3306.00
213.11	3252.00
213.58	3235.00
214.06	3299.00
214.53	3277.00
215.01	3252.00
215.49	3231.00
215.96	3261.00
216.44	3289.00
216.92	3266.00
217.39	3243.00
217.87	3245.00
218.35	3261.00
218.82	3195.00
219.30	3198.00
219.77	3223.00
220.25	3189.00
220.73	3358.00
221.20	3227.00
221.68	3272.00
222.15	3241.00
222.63	3253.00
223.11	3256.00
223.58	3218.00
224.06	3245.00
224.53	3192.00
225.01	3185.00
225.49	3206.00
225.96	3194.00
226.44	3237.00
226.91	3232.00
227.39	3259.00
227.87	3256.00
228.34	3274.00
228.82	3263.00
229.29	3203.00
229.77	3219.00
230.24	3182.00
230.72	3264.00
231.20	3260.00
231.67	3228.00
232.15	3229.00
232.62	3168.00
233.10	3227.00
233.57	3269.00
234.05	3356.00
234.53	3279.00
235.00	3189.00
235.48	3223.00
235.95	3235.00
236.43	3259.00
236.90	3303.00
237.38	3244.00
237.85	3243.00
238.33	3217.00
238.80	3229.00
239.28	3209.00
239.75	3181.00
240.23	3244.00
240.71	3278.00
241.18	3237.00
241.66	3221.00
242.13	3245.00
242.61	3251.00
243.08	3206.00
243.56	3219.00
244.03	3279.00
244.51	3280.00
244.98	3252.00
245.46	3269.00
245.93	4132.00
246.41	3158.00
246.88	3274.00
247.36	3257.00
247.83	3238.00
248.31	3279.00
248.78	3203.00
249.26	3253.00
249.73	3310.00
250.21	3233.00
250.68	3325.00
251.16	3271.00
251.63	3317.00
252.10	3303.00
252.58	3187.00
253.05	3313.00
253.53	3288.00
254.00	3253.00
254.48	3248.00
254.95	3310.00
255.43	3317.00
255.90	3235.00
256.38	3298.00
256.85	3280.00
257.33	3291.00
257.80	3365.00
258.27	3262.00
258.75	3226.00
259.22	3263.00
259.70	3256.00
260.17	3307.00
260.65	3242.00
261.12	3283.00
261.59	3328.00
262.07	3237.00
262.54	3278.00
263.02	3266.00
263.49	3232.00
263.97	3323.00
264.44	3296.00
264.91	3258.00
265.39	3310.00
265.86	3289.00
266.34	3288.00
266.81	3263.00
267.28	3271.00
267.76	3295.00
268.23	3261.00
268.71	3190.00
269.18	3210.00
269.65	3211.00
270.13	3252.00
270.60	3303.00
271.08	3263.00
271.55	3290.00
272.02	3227.00
272.50	3238.00
272.97	3243.00
273.44	3243.00
273.92	3381.00
274.39	3264.00
274.87	3280.00
275.34	3227.00
275.81	3249.00
276.29	3262.00
276.76	3295.00
277.23	3148.00
277.71	3169.00
278.18	3161.00
278.65	3342.00
279.13	3158.00
279.60	3217.00
280.07	3455.00
280.55	3467.00
281.02	3500.00
281.50	3352.00
281.97	3362.00
282.44	3299.00
282.91	3256.00
283.39	3333.00
283.86	3231.00
284.33	3239.00
284.81	3325.00
285.28	3270.00
285.75	3286.00
286.23	3291.00
286.70	3240.00
287.17	3278.00
287.65	3391.00
288.12	3242.00
288.59	3321.00
289.07	3213.00
289.54	3313.00
290.01	3259.00
290.48	3253.00
290.96	3252.00
291.43	3279.00
291.90	3368.00
292.38	3281.00
292.85	3307.00
293.32	3267.00
293.79	3260.00
294.27	3319.00
294.74	3236.00
295.21	3306.00
295.69	3333.00
296.16	3335.00
296.63	3362.00
297.10	3283.00
297.58	3306.00
298.05	3313.00
298.52	3285.00
298.99	3305.00
299.47	3275.00
299.94	3278.00
300.41	3247.00
300.88	3329.00
301.36	3317.00
301.83	3300.00
302.30	3185.00
302.77	3288.00
303.25	3340.00
303.72	3237.00
304.19	3291.00
304.66	3250.00
305.13	3262.00
305.61	3294.00
306.08	3263.00
306.55	3266.00
307.02	3242.00
307.49	3297.00
307.97	3272.00
308.44	3227.00
308.91	3277.00
309.38	3294.00
309.86	3267.00
310.33	3273.00
310.80	3264.00
311.27	3262.00
311.74	3294.00
312.21	3297.00
312.69	3379.00
313.16	3227.00
313.63	3265.00
314.10	3305.00
314.57	3258.00
315.05	3226.00
315.52	3297.00
315.99	3301.00
316.46	3317.00
316.93	3307.00
317.40	3269.00
317.88	3389.00
318.35	3231.00
318.82	3270.00
319.29	3250.00
319.76	3316.00
320.23	3288.00
320.70	3317.00
321.18	3296.00
321.65	3245.00
322.12	3242.00
322.59	3354.00
323.06	3315.00
323.53	3420.00
324.00	3221.00
324.48	3328.00
324.95	3260.00
325.42	3278.00
325.89	3316.00
326.36	3295.00
326.83	3332.00
327.30	3297.00
327.77	3299.00
328.24	3279.00
328.72	3289.00
329.19	3248.00
329.66	3312.00
330.13	3312.00
330.60	3328.00
331.07	3295.00
331.54	3374.00
332.01	3250.00
332.48	3370.00
332.95	3381.00
333.43	3336.00
333.90	3343.00
334.37	3312.00
334.84	3327.00
335.31	3449.00
335.78	3266.00
336.25	3318.00
336.72	3291.00
337.19	3329.00
337.66	3286.00
338.13	3264.00
338.60	3360.00
339.07	3337.00
339.54	3189.00
340.01	3266.00
340.49	3242.00
340.96	3263.00
341.43	3297.00
341.90	3237.00
342.37	3263.00
342.84	3255.00
343.31	3246.00
343.78	3205.00
344.25	3230.00
344.72	3234.00
345.19	3226.00
345.66	3264.00
346.13	3249.00
346.60	3225.00
347.07	3328.00
347.54	3210.00
348.01	3282.00
348.48	3226.00
348.95	3234.00
349.42	3245.00
349.89	3302.00
350.36	3261.00
350.83	3226.00
351.30	3291.00
351.77	3313.00
352.24	3250.00
352.71	3254.00
353.18	3275.00
353.65	3281.00
354.12	3249.00
354.59	3276.00
355.06	3247.00
355.53	3308.00
356.00	3212.00
356.47	3359.00
356.94	3237.00
357.41	3372.00
357.88	3281.00
358.35	3220.00
358.82	3231.00
359.28	3238.00
359.75	3221.00
360.22	3298.00
360.69	3282.00
361.16	3250.00
361.63	3234.00
362.10	3259.00
362.57	3244.00
363.04	3280.00
363.51	3338.00
363.98	3297.00
364.45	3232.00
364.92	3256.00
365.39	3256.00
365.86	3229.00
366.32	3270.00
366.79	3287.00
367.26	3932.00
367.73	3240.00
368.20	3233.00
368.67	3309.00
369.14	3273.00
369.61	3328.00
370.08	3282.00
370.55	3254.00
371.02	3780.00
371.48	3259.00
371.95	3220.00
372.42	3215.00
372.89	3224.00
373.36	3234.00
373.83	3235.00
374.30	3212.00
374.77	3289.00
375.23	3225.00
375.70	3317.00
376.17	3266.00
376.64	3262.00
377.11	3230.00
377.58	3286.00
378.05	3293.00
378.51	3277.00
378.98	3286.00
379.45	3259.00
379.92	3334.00
380.39	3398.00
380.86	3267.00
381.33	3329.00
381.79	3319.00
382.26	3242.00
382.73	3280.00
383.20	3265.00
383.67	3320.00
384.14	3263.00
384.60	3486.00
385.07	3286.00
385.54	3228.00
386.01	3279.00
386.48	3337.00
386.94	3239.00
387.41	3234.00
387.88	3322.00
388.35	3313.00
388.82	3311.00
389.28	3236.00
389.75	3312.00
390.22	3297.00
390.69	3303.00
391.16	3293.00
391.62	3270.00
392.09	3286.00
392.56	3238.00
393.03	3275.00
393.50	3371.00
393.96	3274.00
394.43	3336.00
394.90	3301.00
395.37	3305.00
395.83	3473.00
396.30	3265.00
396.77	3329.00
397.24	3295.00
397.70	3243.00
398.17	3269.00
398.64	3267.00
399.11	3289.00
399.57	3320.00
400.04	3246.00
400.51	3263.00
400.98	3284.00
401.44	3282.00
401.91	3300.00
402.38	3320.00
402.84	3267.00
403.31	3355.00
403.78	3326.00
404.25	3323.00
404.71	3371.00
405.18	3319.00
405.65	3260.00
406.12	3267.00
406.58	3306.00
407.05	3342.00
407.52	3299.00
407.98	3884.00
408.45	3266.00
408.92	3259.00
409.38	3319.00
409.85	3230.00
410.32	3300.00
410.78	3224.00
411.25	3308.00
411.72	3239.00
412.18	3230.00
412.65	3267.00
413.12	3290.00
413.59	3306.00
414.05	3296.00
414.52	3321.00
414.98	3241.00
415.45	3332.00
415.92	3295.00
416.38	3265.00
416.85	3304.00
417.32	3250.00
417.78	3240.00
418.25	3282.00
418.72	3283.00
419.18	3309.00
419.65	3253.00
420.12	3300.00
420.58	3201.00
421.05	3260.00
421.51	3239.00
421.98	3303.00
422.45	3238.00
422.91	3269.00
423.38	3307.00
423.85	3266.00
424.31	3256.00
424.78	3266.00
425.24	3271.00
425.71	3332.00
426.18	3267.00
426.64	3279.00
427.11	3298.00
427.57	3290.00
428.04	3228.00
428.51	3274.00
428.97	3278.00
429.44	3245.00
429.90	3276.00
430.37	3371.00
430.83	3216.00
431.30	3256.00
431.77	3313.00
432.23	3295.00
432.70	3244.00
433.16	3278.00
433.63	3309.00
434.09	3255.00
434.56	3315.00
435.03	3254.00
435.49	3262.00
435.96	3299.00
436.42	3224.00
436.89	3268.00
437.35	3306.00
437.82	3311.00
438.28	3221.00
438.75	3269.00
439.21	3453.00
439.68	3317.00
440.14	3276.00
440.61	3311.00
441.07	3243.00
441.54	3244.00
442.00	3385.00
442.47	3217.00
442.94	3266.00
443.40	3281.00
443.87	3223.00
444.33	3332.00
444.80	3270.00
445.26	3269.00
445.73	3256.00
446.19	3253.00
446.65	3237.00
447.12	3276.00
447.58	3211.00
448.05	3231.00
448.51	3252.00
448.98	3292.00
449.44	3255.00
449.91	3209.00
450.37	3237.00
450.84	3213.00
451.30	3260.00
451.77	3255.00
452.23	3192.00
452.70	3264.00
453.16	3245.00
453.62	3214.00
454.09	3227.00
454.55	3276.00
455.02	3199.00
455.48	3215.00
455.95	3215.00
456.41	3200.00
456.88	3222.00
457.34	3207.00
457.80	3203.00
458.27	3183.00
458.73	3180.00
459.20	3197.00
459.66	3214.00
460.13	3176.00
460.59	3151.00
461.05	3217.00
461.52	3198.00
461.98	3126.00
462.45	3121.00
462.91	3172.00
463.37	3120.00
463.84	3152.00
464.30	3124.00
464.76	3099.00
465.23	3126.00
465.69	3182.00
466.16	3148.00
466.62	3137.00
467.08	3139.00
467.55	3130.00
468.01	3103.00
468.48	3158.00
468.94	3071.00
469.40	3063.00
469.87	3099.00
470.33	3113.00
470.79	3079.00
471.26	3070.00
471.72	3057.00
472.18	3078.00
472.65	3067.00
473.11	3130.00
473.57	3078.00
474.04	3053.00
474.50	3062.00
474.96	3013.00
475.43	3086.00
475.89	3083.00
476.35	3079.00
476.82	3061.00
477.28	3064.00
477.74	3116.00
478.21	3070.00
478.67	3103.00
479.13	3034.00
479.59	3150.00
480.06	3095.00
480.52	3064.00
480.98	3033.00
481.45	3066.00
481.91	3055.00
482.37	3023.00
482.84	3054.00
483.30	3005.00
483.76	3026.00
484.22	3115.00
484.69	3062.00
485.15	3038.00
485.61	2996.00
486.07	3025.00
486.54	2995.00
487.00	3070.00
487.46	3009.00
487.92	2978.00
488.39	3022.00
488.85	3067.00
489.31	3043.00
489.77	3089.00
490.24	2998.00
490.70	3019.00
491.16	3018.00
491.62	3021.00
492.09	3005.00
492.55	3086.00
493.01	3093.00
493.47	3054.00
493.94	3031.00
494.40	3050.00
494.86	3023.00
495.32	3025.00
495.78	3065.00
496.25	3055.00
496.71	3075.00
497.17	3167.00
497.63	3102.00
498.09	3030.00
498.56	3062.00
499.02	3034.00
499.48	3157.00
499.94	3070.00
500.40	3072.00
500.87	3087.00
501.33	3057.00
501.79	3118.00
502.25	3081.00
502.71	3373.00
503.17	3070.00
503.64	3147.00
504.10	3127.00
504.56	3166.00
505.02	3150.00
505.48	3152.00
505.94	3208.00
506.40	3246.00
506.87	3203.00
507.33	3208.00
507.79	3230.00
508.25	3232.00
508.71	3258.00
509.17	3238.00
509.63	3317.00
510.10	3353.00
510.56	3281.00
511.02	3373.00
511.48	3444.00
511.94	3424.00
512.40	3407.00
512.86	3408.00
513.32	3480.00
513.78	3484.00
514.25	3568.00
514.71	4131.00
515.17	3596.00
515.63	3750.00
516.09	3751.00
516.55	3735.00
517.01	3839.00
517.47	3848.00
517.93	3850.00
518.39	4007.00
518.85	3984.00
519.32	4093.00
519.78	4115.00
520.24	4194.00
520.70	4290.00
521.16	4387.00
521.62	4444.00
522.08	4541.00
522.54	4515.00
523.00	4677.00
523.46	4763.00
523.92	4815.00
524.38	5014.00
524.84	5020.00
525.30	5033.00
525.76	5094.00
526.22	5050.00
526.68	5040.00
527.14	5118.00
527.60	5306.00
528.06	5437.00
528.52	5525.00
528.98	5587.00
529.44	5641.00
529.90	5686.00
530.36	5817.00
530.82	5868.00
531.28	5958.00
531.74	5917.00
532.20	5912.00
532.66	5814.00
533.12	5944.00
533.58	6095.00
534.04	6075.00
534.50	6189.00
534.96	6225.00
535.42	6329.00
535.88	6404.00
536.34	6358.00
536.80	6243.00
537.26	6357.00
537.72	6468.00
538.18	6474.00
538.64	6597.00
539.10	6478.00
539.56	6712.00
540.02	6358.00
540.48	6518.00
540.94	6485.00
541.40	6602.00
541.86	6716.00
542.32	6643.00
542.78	6631.00
543.24	6794.00
543.69	6659.00
544.15	6906.00
544.61	6738.00
545.07	6814.00
545.53	6860.00
545.99	6916.00
546.45	6936.00
546.91	6944.00
547.37	6866.00
547.83	6884.00
548.29	6934.00
548.74	6974.00
549.20	7006.00
549.66	7088.00
550.12	7037.00
550.58	7062.00
551.04	7160.00
551.50	7175.00
551.96	7253.00
552.42	7130.00
552.87	7109.00
553.33	7170.00
553.79	7209.00
554.25	7100.00
554.71	7213.00
555.17	7203.00
555.63	7295.00
556.08	7134.00
556.54	7166.00
557.00	6945.00
557.46	7002.00
557.92	7197.00
558.38	6982.00
558.83	6860.00
559.29	6830.00
559.75	6852.00
560.21	6831.00
560.67	6925.00
561.13	6860.00
561.58	6781.00
562.04	6718.00
562.50	6680.00
562.96	6786.00
563.42	6765.00
563.87	6566.00
564.33	6546.00
564.79	6562.00
565.25	6425.00
565.71	6315.00
566.16	6300.00
566.62	6294.00
567.08	6270.00
567.54	6199.00
568.00	6178.00
568.45	6050.00
568.91	5920.00
569.37	5994.00
569.83	5871.00
570.28	5754.00
570.74	5689.00
571.20	5644.00
571.66	5638.00
572.11	5623.00
572.57	5588.00
573.03	5536.00
573.49	5511.00
573.94	5475.00
574.40	5425.00
574.86	5369.00
575.32	5305.00
575.77	5205.00
576.23	5189.00
576.69	5216.00
577.15	5156.00
577.60	5130.00
578.06	4985.00
578.52	5081.00
578.97	5023.00
579.43	4970.00
579.89	4983.00
580.34	4972.00
580.80	4915.00
581.26	4886.00
581.72	4902.00
582.17	4873.00
582.63	4800.00
583.09	4851.00
583.54	4839.00
584.00	4812.00
584.46	4775.00
584.91	4704.00
585.37	4819.00
585.83	4650.00
586.28	4647.00
586.74	4659.00
587.20	4605.00
587.65	4660.00
588.11	4518.00
588.57	4498.00
589.02	4368.00
589.48	4305.00
589.94	4438.00
590.39	4530.00
590.85	4447.00
591.30	4488.00
591.76	4494.00
592.22	4423.00
592.67	4455.00
593.13	4452.00
593.59	4497.00
594.04	4372.00
594.50	4383.00
594.95	4425.00
595.41	4385.00
595.87	4379.00
596.32	4440.00
596.78	4393.00
597.23	4404.00
597.69	4358.00
598.15	4310.00
598.60	4310.00
599.06	4446.00
599.51	4355.00
599.97	4331.00
600.43	4340.00
600.88	4343.00
601.34	4370.00
601.79	4268.00
602.25	4430.00
602.70	4277.00
603.16	4338.00
603.61	4274.00
604.07	4235.00
604.53	4284.00
604.98	4313.00
605.44	4276.00
605.89	4253.00
606.35	4165.00
606.80	4228.00
607.26	4157.00
607.71	4153.00
608.17	4154.00
608.62	4119.00
609.08	4244.00
609.53	4120.00
609.99	4083.00
610.44	4004.00
610.90	4060.00
611.35	3988.00
611.81	4050.00
612.26	3978.00
612.72	4010.00
613.17	4109.00
613.63	3905.00
614.08	3911.00
614.54	3884.00
614.99	3857.00
615.45	3887.00
615.90	3862.00
616.36	3759.00
616.81	3829.00
617.27	3831.00
617.72	3875.00
618.18	3810.00
618.63	3800.00
619.09	3797.00
619.54	3797.00
619.99	3777.00
620.45	3815.00
620.90	3841.00
621.36	3748.00
621.81	3802.00
622.27	3777.00
622.72	3757.00
623.18	3734.00
623.63	3694.00
624.08	3743.00
624.54	3682.00
624.99	3670.00
625.45	3718.00
625.90	3667.00
626.35	3717.00
626.81	3741.00
627.26	3681.00
627.72	3705.00
628.17	3734.00
628.62	3637.00
629.08	3684.00
629.53	3685.00
629.99	3607.00
630.44	3710.00
630.89	3713.00
631.35	3713.00
631.80	3734.00
632.26	3710.00
632.71	3678.00
633.16	3671.00
633.62	3657.00
634.07	3634.00
634.52	3638.00
634.98	3626.00
635.43	3589.00
635.88	3608.00
636.34	3625.00
636.79	3605.00
637.24	3582.00
637.70	3631.00
638.15	3619.00
638.60	3533.00
639.06	3537.00
639.51	3504.00
639.96	3455.00
640.42	3511.00
640.87	3553.00
641.32	3420.00
641.78	3418.00
642.23	3419.00
642.68	3368.00
643.14	3390.00
643.59	3415.00
644.04	3349.00
644.49	3313.00
644.95	3334.00
645.40	3310.00
645.85	3319.00
646.31	3336.00
646.76	3314.00
647.21	3347.00
647.66	3321.00
648.12	3285.00
648.57	3247.00
649.02	3325.00
649.47	3245.00
649.93	3393.00
650.38	3232.00
650.83	3229.00
651.28	3208.00
651.74	3240.00
652.19	3196.00
652.64	3225.00
653.09	3212.00
653.55	3232.00
654.00	3200.00
654.45	3231.00
654.90	3196.00
655.35	3153.00
655.81	3203.00
656.26	3151.00
656.71	3168.00
657.16	3215.00
657.62	3186.00
658.07	3163.00
658.52	3181.00
658.97	3109.00
659.42	3315.00
659.88	3158.00
660.33	3212.00
660.78	3147.00
661.23	3099.00
661.68	3110.00
662.13	3091.00
662.59	3078.00
663.04	3138.00
663.49	3086.00
663.94	3079.00
664.39	3126.00
664.84	3019.00
665.30	3115.00
665.75	3085.00
666.20	3097.00
666.65	3130.00
667.10	3168.00
667.55	3138.00
668.00	3046.00
668.46	3097.00
668.91	3050.00
669.36	3130.00
669.81	3008.00
670.26	3027.00
670.71	3123.00
671.16	3040.00
671.61	3140.00
672.06	3142.00
672.52	3065.00
672.97	3091.00
673.42	3130.00
673.87	3215.00
674.32	3074.00
674.77	3089.00
675.22	3002.00
675.67	3029.00
676.12	3057.00
676.57	3095.00
677.02	3077.00
677.47	3055.00
677.93	3193.00
678.38	3054.00
678.83	3075.00
679.28	3088.00
679.73	3059.00
680.18	3058.00
680.63	3056.00
681.08	3016.00
681.53	3015.00
681.98	3092.00
682.43	3112.00
682.88	3137.00
683.33	3123.00
683.78	3126.00
684.23	3172.00
684.68	3147.00
685.13	3158.00
685.58	3139.00
686.03	3151.00
686.48	3119.00
686.93	3149.00
687.38	3165.00
687.83	3176.00
688.28	3178.00
688.73	3362.00
689.18	3314.00
689.63	3223.00
690.08	3301.00
690.53	3403.00
690.98	3397.00
691.43	3498.00
691.88	3525.00
692.33	3668.00
692.78	3694.00
693.23	3930.00
693.68	3932.00
694.13	4059.00
694.58	4139.00
695.03	4497.00
695.48	4453.00
695.93	4615.00
696.38	4894.00
696.83	5052.00
697.28	5265.00
697.72	5451.00
698.17	5614.00
698.62	5881.00
699.07	6154.00
699.52	6303.00
699.97	6608.00
700.42	6934.00
700.87	7274.00
701.32	7568.00
701.77	7674.00
702.22	8138.00
702.67	8332.00
703.11	8781.00
703.56	9200.00
704.01	9568.00
704.46	10015.00
704.91	10338.00
705.36	10701.00
705.81	10924.00
706.26	11158.00
706.70	11671.00
707.15	12155.00
707.60	12473.00
708.05	12933.00
708.50	13375.00
708.95	13655.00
709.40	14030.00
709.84	14541.00
710.29	14645.00
710.74	15060.00
711.19	15494.00
711.64	15937.00
712.09	16393.00
712.53	16741.00
712.98	17239.00
713.43	17479.00
713.88	17874.00
714.33	18302.00
714.78	18613.00
715.22	18839.00
715.67	19072.00
716.12	19247.00
716.57	18830.00
717.02	18349.00
717.46	18159.00
717.91	18162.00
718.36	18078.00
718.81	18114.00
719.26	18312.00
719.70	19021.00
720.15	19436.00
720.60	20288.00
721.05	21854.00
721.49	23111.00
721.94	23867.00
722.39	23973.00
722.84	23753.00
723.28	23229.00
723.73	23149.00
724.18	23446.00
724.63	23936.00
725.07	24355.00
725.52	24753.00
725.97	25562.00
726.42	25843.00
726.86	26669.00
727.31	26368.00
727.76	26586.00
728.21	27572.00
728.65	27792.00
729.10	27654.00
729.55	28492.00
729.99	29435.00
730.44	29678.00
730.89	30248.00
731.33	30912.00
731.78	31711.00
732.23	32878.00
732.68	33642.00
733.12	34242.00
733.57	35126.00
734.02	35813.00
734.46	36445.00
734.91	36469.00
735.36	36960.00
735.80	37556.00
736.25	37537.00
736.70	38163.00
737.14	38660.00
737.59	39048.00
738.04	39101.00
738.48	39150.00
738.93	39225.00
739.37	39879.00
739.82	40781.00
740.27	41139.00
740.71	41205.00
741.16	41193.00
741.61	41541.00
742.05	41734.00
742.50	41997.00
742.94	42624.00
743.39	42851.00
743.84	43149.00
744.28	43345.00
744.73	43554.00
745.18	44056.00
745.62	44409.00
746.07	44672.00
746.51	44483.00
746.96	44722.00
747.40	44502.00
747.85	44574.00
748.30	44567.00
748.74	44742.00
749.19	44520.00
749.63	44780.00
750.08	45171.00
750.52	45134.00
750.97	44949.00
751.42	45080.00
751.86	45168.00
752.31	44866.00
752.75	45081.00
753.20	45242.00
753.64	45193.00
754.09	45452.00
754.53	45447.00
754.98	45550.00
755.42	45518.00
755.87	45463.00
756.31	45467.00
756.76	44904.00
757.20	44770.00
757.65	44274.00
758.09	43955.00
758.54	42760.00
758.98	39119.00
759.43	31183.00
759.87	22343.00
760.32	16557.00
760.76	15652.00
761.21	18967.00
761.65	23965.00
762.10	25575.00
762.54	24343.00
762.99	22981.00
763.43	23375.00
763.88	24875.00
764.32	26765.00
764.77	29509.00
765.21	31762.00
765.66	33500.00
766.10	35367.00
766.54	36983.00
766.99	39029.00
767.43	40501.00
767.88	41640.00
768.32	42544.00
768.77	43168.00
769.21	43925.00
769.66	44171.00
770.10	45002.00
770.54	45332.00
770.99	45412.00
771.43	44995.00
771.88	45128.00
772.32	44891.00
772.76	44996.00
773.21	45011.00
773.65	45112.00
774.10	45044.00
774.54	44553.00
774.98	44849.00
775.43	45147.00
775.87	45490.00
776.31	45847.00
776.76	45612.00
777.20	45602.00
777.65	45130.00
778.09	44873.00
778.53	44635.00
778.98	44720.00
779.42	44487.00
779.86	44524.00
780.31	44605.00
780.75	44906.00
781.19	44877.00
781.64	44997.00
782.08	45223.00
782.52	45190.00
782.97	44515.00
783.41	44218.00
783.85	43585.00
784.30	43779.00
784.74	43645.00
785.18	43370.00
785.63	43260.00
786.07	43707.00
786.51	43894.00
786.95	43888.00
787.40	43621.00
787.84	43619.00
788.28	43060.00
788.73	43026.00
789.17	42282.00
789.61	42003.00
790.05	41495.00
790.50	41503.00
790.94	41481.00
791.38	41306.00
791.82	41498.00
792.27	41454.00
792.71	41641.00
793.15	41861.00
793.59	41544.00
794.04	41463.00
794.48	41145.00
794.92	40811.00
795.36	40660.00
795.81	40112.00
796.25	39994.00
796.69	40176.00
797.13	40804.00
797.57	41069.00
798.02	41603.00
798.46	41741.00
798.90	41355.00
799.34	40898.00
799.79	40494.00
800.23	39603.00
800.67	39480.00
801.11	39489.00
801.55	39127.00
801.99	39246.00
802.44	39352.00
802.88	39534.00
803.32	39908.00
803.76	40034.00
804.20	40186.00
804.64	40108.00
805.09	39919.00
805.53	39975.00
805.97	39552.00
806.41	39023.00
806.85	38617.00
807.29	38404.00
807.74	38527.00
808.18	38456.00
808.62	38385.00
809.06	38407.00
809.50	38440.00
809.94	38540.00
810.38	38610.00
810.82	38618.00
811.27	38370.00
811.71	37542.00
812.15	36756.00
812.59	35842.00
813.03	34821.00
813.47	33859.00
813.91	33091.00
814.35	32625.00
814.79	32265.00
815.23	32130.00
815.67	31616.00
816.12	31804.00
816.56	31502.00
817.00	31782.00
817.44	31893.00
817.88	31984.00
818.32	31474.00
818.76	31738.00
819.20	31570.00
819.64	31780.00
820.08	32370.00
820.52	33013.00
820.96	33981.00
821.40	33508.00
821.84	32746.00
822.28	30768.00
822.72	30186.00
823.16	30099.00
823.60	31623.00
824.04	33539.00
824.48	34288.00
824.92	34449.00
825.36	34278.00
825.80	33787.00
826.24	33567.00
826.68	33188.00
827.12	33208.00
827.56	32559.00
828.00	32622.00
828.44	32762.00
828.88	33225.00
829.32	33443.00
829.76	33547.00
830.20	34232.00
830.64	33714.00
831.08	33380.00
831.52	32997.00
831.96	32596.00
832.40	32029.00
832.84	32472.00
833.28	32915.00
833.72	33607.00
834.16	34276.00
834.60	35228.00
835.04	35622.00
835.48	35718.00
835.91	35573.00
836.35	35543.00
836.79	35097.00
837.23	34815.00
837.67	34534.00
838.11	34407.00
838.55	34440.00
838.99	34559.00
839.43	34869.00
839.87	35522.00
840.30	35791.00
840.74	36313.00
841.18	36795.00
841.62	36614.00
842.06	36701.00
842.50	36520.00
842.94	36120.00
843.38	35572.00
843.81	34680.00
844.25	34388.00
844.69	34304.00
845.13	34403.00
845.57	34477.00
846.01	34563.00
846.45	35126.00
846.88	35538.00
847.32	36065.00
847.76	36482.00
848.20	36607.00
848.64	36058.00
849.08	35481.00
849.51	35105.00
849.95	34269.00
850.39	33965.00
850.83	34722.00
851.27	34658.00
851.70	34138.00
852.14	33860.00
852.58	33534.00
853.02	32259.00
853.46	31136.00
853.89	31445.00
854.33	31454.00
854.77	32664.00
855.21	34624.00
855.65	35655.00
856.08	36026.00
856.52	36190.00
856.96	35897.00
857.40	35245.00
857.83	34373.00
858.27	33806.00
858.71	33641.00
859.15	33350.00
859.58	33843.00
860.02	34078.00
860.46	34613.00
860.89	35256.00
861.33	35597.00
861.77	35938.00
862.21	36073.00
862.64	36287.00
863.08	36076.00
863.52	35759.00
863.95	34960.00
864.39	34300.00
864.83	33295.00
865.27	31699.00
865.70	31405.00
866.14	30902.00
866.58	30833.00
867.01	32398.00
867.45	33750.00
867.89	34412.00
868.32	35284.00
868.76	35525.00
869.20	35676.00
869.63	35578.00
870.07	35028.00
870.51	34064.00
870.94	33505.00
871.38	32705.00
871.82	32180.00
872.25	32032.00
872.69	32184.00
873.13	32559.00
873.56	32856.00
874.00	33380.00
874.43	33633.00
874.87	34165.00
875.31	34543.00
875.74	34650.00
876.18	34879.00
876.61	34664.00
877.05	34509.00
877.49	33895.00
877.92	33343.00
878.36	32770.00
878.79	32365.00
879.23	31633.00
879.67	31055.00
880.10	31417.00
880.54	31520.00
880.97	31631.00
881.41	32946.00
881.84	33580.00
882.28	34262.00
882.72	34805.00
883.15	35188.00
883.59	35226.00
884.02	34829.00
884.46	34418.00
884.89	33821.00
885.33	33266.00
885.76	32101.00
886.20	31395.00
886.63	31296.00
887.07	30947.00
887.50	31060.00
887.94	31401.00
888.37	31528.00
888.81	32362.00
889.24	32481.00
889.68	32843.00
890.11	33304.00
890.55	33841.00
890.98	33888.00
891.42	34054.00
891.85	33648.00
892.29	33104.00
892.72	32313.00
893.16	31210.00
893.59	30563.00
894.03	29514.00
894.46	28587.00
894.90	27802.00
895.33	26682.00
895.77	26760.00
896.20	26589.00
896.63	26590.00
897.07	26944.00
897.50	26692.00
897.94	26840.00
898.37	27770.00
898.81	26368.00
899.24	25569.00
899.68	27117.00
900.11	26527.00
900.54	25993.00
900.98	25421.00
901.41	25130.00
901.85	25323.00
902.28	25598.00
902.71	25913.00
903.15	26753.00
903.58	27727.00
904.02	27913.00
904.45	27799.00
904.88	27928.00
905.32	27608.00
905.75	27694.00
906.18	26719.00
906.62	26970.00
907.05	25968.00
907.48	26313.00
907.92	25824.00
908.35	25683.00
908.79	25245.00
909.22	25019.00
909.65	24491.00
910.09	24431.00
910.52	24207.00
910.95	24217.00
911.38	24920.00
911.82	23884.00
912.25	24383.00
912.68	24877.00
913.12	24718.00
913.55	24877.00
913.98	25576.00
914.42	26524.00
914.85	26982.00
915.28	25413.00
915.72	25104.00
916.15	24745.00
916.58	24808.00
917.01	24208.00
917.45	23370.00
917.88	24164.00
918.31	24576.00
918.74	25414.00
919.18	26102.00
919.61	25820.00
920.04	26500.00
920.47	26766.00
920.91	27036.00
921.34	27032.00
921.77	26999.00
922.20	27481.00
922.64	27424.00
923.07	27037.00
923.50	26735.00
923.93	26297.00
924.37	25903.00
924.80	25495.00
925.23	24973.00
925.66	24307.00
926.09	23163.00
926.53	22690.00
926.96	22120.00
927.39	21144.00
927.82	20144.00
928.25	19302.00
928.69	18828.00
929.12	18690.00
929.55	17763.00
929.98	17068.00
930.41	15988.00
930.84	15004.00
931.28	14091.00
931.71	13014.00
932.14	11700.00
932.57	10945.00
933.00	10542.00
933.43	10080.00
933.86	9728.00
934.30	9040.00
934.73	10254.00
935.16	10003.00
935.59	9169.00
936.02	9744.00
936.45	9611.00
936.88	9470.00
937.31	10327.00
937.75	10873.00
938.18	11451.00
938.61	11926.00
939.04	12620.00
939.47	12419.00
939.90	11576.00
940.33	11078.00
940.76	10427.00
941.19	9836.00
941.62	9581.00
942.05	9661.00
942.48	8695.00
942.91	8513.00
943.35	9262.00
943.78	8642.00
944.21	8405.00
944.64	9204.00
945.07	9536.00
945.50	9136.00
945.93	9545.00
946.36	9871.00
946.79	10026.00
947.22	10718.00
947.65	10532.00
948.08	9912.00
948.51	10555.00
948.94	10911.00
949.37	10441.00
949.80	9892.00
950.23	10193.00
950.66	10598.00
951.09	10698.00
951.52	10164.00
951.95	10330.00
952.38	10602.00
952.81	11309.00
953.24	11888.00
953.67	12141.00
954.10	11850.00
954.53	12514.00
954.96	12416.00
955.39	12486.00
955.82	13291.00
956.25	12904.00
956.68	13034.00
957.11	13378.00
957.53	13000.00
957.96	12705.00
958.39	12643.00
958.82	12141.00
959.25	12470.00
959.68	13125.00
960.11	13386.00
960.54	13481.00
960.97	14294.00
961.40	14778.00
961.83	14719.00
962.26	14781.00
962.68	16177.00
963.11	16318.00
963.54	16417.00
963.97	16690.00
964.40	16461.00
964.83	16802.00
965.26	16893.00
965.69	16713.00
966.11	16585.00
966.54	16600.00
966.97	17623.00
967.40	17681.00
967.83	17600.00
968.26	17754.00
968.69	17808.00
969.11	18114.00
969.54	17996.00
969.97	18140.00
970.40	18392.00
970.83	18398.00
971.26	18607.00
971.68	18636.00
972.11	18758.00
972.54	19253.00
972.97	18966.00
973.40	18569.00
973.82	18586.00
974.25	18432.00
974.68	18129.00
975.11	17746.00
975.54	17683.00
975.96	17367.00
976.39	17376.00
976.82	17487.00
977.25	17355.00
977.67	17343.00
978.10	17445.00
978.53	17776.00
978.96	18095.00
979.38	18508.00
979.81	18811.00
980.24	19366.00
980.67	19707.00
981.09	19937.00
981.52	20307.00
981.95	20309.00
982.38	20341.00
982.80	20476.00
983.23	20633.00
983.66	20720.00
984.08	20350.00
984.51	20223.00
984.94	19977.00
985.37	19808.00
985.79	19429.00
986.22	19141.00
986.65	18800.00
987.07	18541.00
987.50	18822.00
987.93	18747.00
988.35	18714.00
988.78	19000.00
989.21	19052.00
989.63	19434.00
990.06	19720.00
990.49	19946.00
990.91	20341.00
991.34	20624.00
991.77	20465.00
992.19	20331.00
992.62	20412.00
993.05	20270.00
993.47	19925.00
993.90	19705.00
994.32	19437.00
994.75	19137.00
995.18	18861.00
995.60	18529.00
996.03	18264.00
996.45	18236.00
996.88	18087.00
997.31	17912.00
997.73	18018.00
998.16	18046.00
998.58	18243.00
999.01	18271.00
999.44	18630.00
999.86	18706.00
1000.29	18974.00
1000.71	19073.00
1001.14	19052.00
1001.56	19019.00
1001.99	18802.00
1002.41	18534.00
1002.84	18200.00
1003.27	17849.00
1003.69	17381.00
1004.12	16979.00
1004.54	16788.00
1004.97	16438.00
1005.39	16259.00
1005.82	16278.00
1006.24	16114.00
1006.67	16182.00
1007.09	16110.00
1007.52	16130.00
1007.94	16126.00
1008.37	16262.00
1008.79	16216.00
1009.22	16255.00
1009.64	16386.00
1010.07	16447.00
1010.49	16450.00
1010.92	16613.00
1011.34	16494.00
1011.77	16474.00
1012.19	16326.00
1012.62	16214.00
1013.04	15905.00
1013.46	15723.00
1013.89	15294.00
1014.31	15110.00
1014.74	14745.00
1015.16	14817.00
1015.59	14705.00
1016.01	14605.00
1016.44	14709.00
1016.86	15573.00
1017.28	14865.00
1017.71	14885.00
1018.13	15107.00
1018.56	15312.00
1018.98	15403.00
1019.40	15453.00
1019.83	15444.00
1020.25	15701.00
1020.68	15685.00
1021.10	15716.00
1021.52	15841.00
1021.95	16072.00
1022.37	15891.00
1022.79	15832.00
1023.22	15661.00
1023.64	15626.00
1024.07	15361.00
1024.49	15197.00
1024.91	14962.00
1025.34	14766.00
1025.76	14779.00
1026.18	14591.00
1026.61	14517.00
1027.03	14435.00
1027.45	14431.00
1027.88	14392.00
1028.30	14572.00
1028.72	14704.00
1029.15	14820.00
1029.57	14955.00
1029.99	14962.00
1030.41	14705.00
1030.84	14851.00
1031.26	14752.00
1031.68	14538.00
1032.11	14519.00
1032.53	14328.00
1032.95	14087.00
1033.37	13967.00
1033.80	13706.00
1034.22	13372.00
1034.64	13302.00
1035.06	13069.00
1035.49	12977.00
1035.91	12713.00
1036.33	12542.00
1036.75	12466.00
1037.18	12594.00
1037.60	12542.00
1038.02	12327.00
1038.44	12363.00
1038.87	12430.00
1039.29	12338.00
1039.71	12461.00
1040.13	12461.00
1040.55	12513.00
1040.98	12446.00
1041.40	12453.00
1041.82	12290.00
1042.24	12178.00
1042.66	11949.00
1043.09	11831.00
1043.51	11547.00
1043.93	11424.00
1044.35	11266.00
1044.77	11038.00
1045.20	11058.00
1045.62	10711.00
1046.04	10708.00
1046.46	10669.00
1046.88	10421.00
1047.30	10443.00
1047.72	10340.00
1048.15	10298.00
1048.57	10169.00
1048.99	10204.00
1049.41	10252.00
1049.83	10191.00
1050.25	10133.00
1050.67	10016.00
1051.09	10007.00
1051.52	9932.00
1051.94	9840.00
1052.36	9826.00
1052.78	9810.00
1053.20	9746.00
1053.62	9714.00
1054.04	9550.00
1054.46	9529.00
1054.88	9466.00
1055.30	9367.00
1055.72	9337.00
1056.14	9034.00
1056.57	9047.00
1056.99	8812.00
1057.41	8739.00
1057.83	8580.00
1058.25	8546.00
1058.67	8451.00
1059.09	8312.00
1059.51	8310.00
1059.93	8168.00
1060.35	8046.00
1060.77	8048.00
1061.19	8143.00
1061.61	8020.00
1062.03	7921.00
1062.45	7858.00
1062.87	7928.00
1063.29	7857.00
1063.71	7832.00
1064.13	7824.00
1064.55	7814.00
1064.97	7716.00
1065.39	7586.00
1065.81	7613.00
1066.23	7556.00
1066.65	7460.00
1067.07	7500.00
1067.49	7262.00
1067.91	7209.00
1068.33	7091.00
1068.75	7123.00
1069.17	7068.00
1069.59	7037.00
1070.00	6921.00
1070.42	6944.00
1070.84	6748.00
1071.26	6758.00
1071.68	6625.00
1072.10	6747.00
1072.52	6709.00
1072.94	6652.00
1073.36	6679.00
1073.78	6578.00
1074.20	6591.00
1074.62	6607.00
1075.03	6500.00
1075.45	6485.00
1075.87	6492.00
1076.29	6449.00
1076.71	6456.00
1077.13	6504.00
1077.55	6311.00
1077.97	6308.00
1078.38	6150.00
1078.80	6157.00
1079.22	6133.00
1079.64	5986.00
1080.06	5982.00
1080.48	5929.00
1080.89	5805.00
1081.31	5826.00
1081.73	5779.00
1082.15	5733.00
1082.57	5721.00
1082.99	5629.00
1083.40	5647.00
1083.82	5574.00
1084.24	5547.00
1084.66	5528.00
1085.08	5543.00
1085.49	5456.00
1085.91	5548.00
1086.33	6567.00
1086.75	5535.00
1087.17	5375.00
1087.58	5379.00
1088.00	5356.00
1088.42	5420.00
1088.84	5361.00
1089.25	5288.00
1089.67	5262.00
1090.09	5214.00
1090.51	5066.00
1090.92	5065.00
1091.34	5035.00
1091.76	4938.00
1092.18	4861.00
1092.59	4878.00
1093.01	4803.00
1093.43	4839.00
1093.84	4769.00
1094.26	4735.00
1094.68	4721.00
1095.10	4644.00
1095.51	4628.00
1095.93	4631.00
1096.35	4627.00
1096.76	4637.00
1097.18	4639.00
1097.60	4557.00
1098.01	4515.00
1098.43	4458.00
1098.85	4484.00
1099.26	4428.00
1099.68	4406.00
1100.10	4315.00
1100.51	4274.00
1100.93	4264.00
1101.35	4209.00
1101.76	4200.00
1102.18	4541.00
1102.60	4184.00
1103.01	4042.00
1103.43	4081.00
1103.84	4091.00
1104.26	4021.00
1104.68	4015.00
1105.09	3939.00
1105.51	3972.00
1105.92	3988.00
1106.34	3891.00
1106.76	3886.00
1107.17	3860.00
1107.59	3827.00
1108.00	3739.00
1108.42	3710.00
1108.83	3671.00
1109.25	3638.00
1109.67	3671.00
1110.08	3635.00
1110.50	3591.00
1110.91	3601.00
1111.33	3528.00
1111.74	3502.00
1112.16	3525.00
1112.57	3450.00
1112.99	3423.00
1113.41	3383.00
1113.82	3349.00
1114.24	3288.00
1114.65	3252.00
1115.07	3170.00
1115.48	3022.00
1115.90	2178.00
1116.31	2201.00
1116.73	2196.00
1117.14	2205.00
>>>>>End Processed Spectral Data<<<<<
