SpectraSuite Data File
++++++++++++++++++++++++++++++++++++
Date: Tue May 29 12:59:48 EEST 2018
User: CanSEE
Dark Spectrum Present: No
Reference Spectrum Present: No
Number of Sampled Component Spectra: 1
Spectrometers: MAYP11278
Integration Time (usec): 250000 (MAYP11278)
Spectra Averaged: 1 (MAYP11278)
Boxcar Smoothing: 0 (MAYP11278)
Correct for Electrical Dark: No (MAYP11278)
Strobe/Lamp Enabled: No (MAYP11278)
Correct for Detector Non-linearity: No (MAYP11278)
Correct for Stray Light: No (MAYP11278)
Number of Pixels in Processed Spectrum: 2068
>>>>>Begin Processed Spectral Data<<<<<
187.82	2322.00
188.30	2223.00
188.78	2198.00
189.26	2197.00
189.73	2984.00
190.21	3062.00
190.69	3147.00
191.17	3149.00
191.64	3171.00
192.12	3149.00
192.60	3111.00
193.07	3131.00
193.55	3113.00
194.03	3179.00
194.51	3142.00
194.98	3127.00
195.46	3161.00
195.94	3135.00
196.42	3146.00
196.89	3284.00
197.37	3143.00
197.85	3091.00
198.32	3147.00
198.80	3154.00
199.28	3163.00
199.76	3186.00
200.23	3146.00
200.71	3142.00
201.19	3170.00
201.66	3186.00
202.14	3172.00
202.62	3121.00
203.09	3167.00
203.57	3139.00
204.05	3200.00
204.53	3215.00
205.00	3137.00
205.48	3138.00
205.96	3216.00
206.43	3142.00
206.91	3160.00
207.39	3226.00
207.86	3178.00
208.34	3176.00
208.82	3174.00
209.29	3221.00
209.77	3165.00
210.25	3160.00
210.72	3173.00
211.20	3192.00
211.68	3178.00
212.15	3158.00
212.63	3191.00
213.11	3208.00
213.58	3134.00
214.06	3215.00
214.53	3176.00
215.01	3254.00
215.49	3165.00
215.96	3187.00
216.44	3210.00
216.92	3173.00
217.39	3189.00
217.87	3179.00
218.35	3216.00
218.82	3128.00
219.30	3184.00
219.77	3186.00
220.25	3180.00
220.73	3273.00
221.20	3160.00
221.68	3192.00
222.15	3164.00
222.63	3199.00
223.11	3150.00
223.58	3207.00
224.06	3154.00
224.53	3130.00
225.01	3140.00
225.49	3194.00
225.96	3115.00
226.44	3180.00
226.91	3257.00
227.39	3151.00
227.87	3186.00
228.34	3190.00
228.82	3186.00
229.29	3158.00
229.77	3166.00
230.24	3161.00
230.72	3201.00
231.20	3249.00
231.67	3159.00
232.15	3139.00
232.62	3143.00
233.10	3211.00
233.57	3182.00
234.05	3327.00
234.53	3180.00
235.00	3167.00
235.48	3144.00
235.95	3213.00
236.43	3229.00
236.90	3256.00
237.38	3163.00
237.85	3180.00
238.33	3151.00
238.80	3170.00
239.28	3183.00
239.75	3147.00
240.23	3203.00
240.71	3217.00
241.18	3162.00
241.66	3175.00
242.13	3225.00
242.61	3208.00
243.08	3133.00
243.56	3172.00
244.03	3185.00
244.51	3279.00
244.98	3150.00
245.46	3206.00
245.93	4627.00
246.41	3109.00
246.88	3183.00
247.36	3178.00
247.83	3199.00
248.31	3183.00
248.78	3156.00
249.26	3181.00
249.73	3189.00
250.21	3219.00
250.68	3236.00
251.16	3202.00
251.63	3277.00
252.10	3249.00
252.58	3199.00
253.05	3244.00
253.53	3182.00
254.00	3188.00
254.48	3211.00
254.95	3196.00
255.43	3222.00
255.90	3159.00
256.38	3193.00
256.85	3252.00
257.33	3221.00
257.80	3310.00
258.27	3212.00
258.75	3149.00
259.22	3204.00
259.70	3220.00
260.17	3274.00
260.65	3179.00
261.12	3198.00
261.59	3222.00
262.07	3218.00
262.54	3205.00
263.02	3211.00
263.49	3147.00
263.97	3207.00
264.44	3233.00
264.91	3197.00
265.39	3195.00
265.86	3213.00
266.34	3244.00
266.81	3213.00
267.28	3197.00
267.76	3209.00
268.23	3155.00
268.71	3105.00
269.18	3134.00
269.65	3153.00
270.13	3195.00
270.60	3223.00
271.08	3175.00
271.55	3167.00
272.02	3190.00
272.50	3192.00
272.97	3129.00
273.44	3178.00
273.92	3282.00
274.39	3238.00
274.87	3171.00
275.34	3163.00
275.81	3151.00
276.29	3195.00
276.76	3194.00
277.23	3086.00
277.71	3105.00
278.18	3063.00
278.65	3240.00
279.13	3110.00
279.60	3141.00
280.07	3416.00
280.55	3382.00
281.02	3436.00
281.50	3289.00
281.97	3307.00
282.44	3210.00
282.91	3215.00
283.39	3233.00
283.86	3212.00
284.33	3163.00
284.81	3266.00
285.28	3253.00
285.75	3242.00
286.23	3224.00
286.70	3181.00
287.17	3187.00
287.65	3274.00
288.12	3211.00
288.59	3214.00
289.07	3133.00
289.54	3233.00
290.01	3178.00
290.48	3219.00
290.96	3214.00
291.43	3213.00
291.90	3281.00
292.38	3179.00
292.85	3220.00
293.32	3186.00
293.79	3201.00
294.27	3215.00
294.74	3190.00
295.21	3218.00
295.69	3214.00
296.16	3254.00
296.63	3254.00
297.10	3233.00
297.58	3213.00
298.05	3241.00
298.52	3169.00
298.99	3249.00
299.47	3172.00
299.94	3222.00
300.41	3189.00
300.88	3253.00
301.36	3255.00
301.83	3243.00
302.30	3166.00
302.77	3229.00
303.25	3220.00
303.72	3192.00
304.19	3223.00
304.66	3170.00
305.13	3230.00
305.61	3181.00
306.08	3205.00
306.55	3221.00
307.02	3208.00
307.49	3183.00
307.97	3235.00
308.44	3176.00
308.91	3265.00
309.38	3258.00
309.86	3233.00
310.33	3198.00
310.80	3258.00
311.27	3187.00
311.74	3212.00
312.21	3235.00
312.69	3279.00
313.16	3214.00
313.63	3208.00
314.10	3229.00
314.57	3169.00
315.05	3198.00
315.52	3266.00
315.99	3257.00
316.46	3201.00
316.93	3244.00
317.40	3247.00
317.88	3353.00
318.35	3234.00
318.82	3207.00
319.29	3161.00
319.76	3235.00
320.23	3295.00
320.70	3234.00
321.18	3208.00
321.65	3180.00
322.12	3207.00
322.59	3283.00
323.06	3236.00
323.53	3347.00
324.00	3171.00
324.48	3266.00
324.95	3227.00
325.42	3233.00
325.89	3207.00
326.36	3267.00
326.83	3230.00
327.30	3265.00
327.77	3253.00
328.24	3213.00
328.72	3227.00
329.19	3210.00
329.66	3241.00
330.13	3237.00
330.60	3276.00
331.07	3280.00
331.54	3325.00
332.01	3185.00
332.48	3288.00
332.95	3251.00
333.43	3229.00
333.90	3273.00
334.37	3269.00
334.84	3249.00
335.31	3359.00
335.78	3209.00
336.25	3219.00
336.72	3233.00
337.19	3247.00
337.66	3257.00
338.13	3230.00
338.60	3288.00
339.07	3255.00
339.54	3226.00
340.01	3198.00
340.49	3225.00
340.96	3239.00
341.43	3319.00
341.90	3238.00
342.37	3240.00
342.84	3267.00
343.31	3260.00
343.78	3237.00
344.25	3222.00
344.72	3221.00
345.19	3242.00
345.66	3249.00
346.13	3208.00
346.60	3209.00
347.07	3284.00
347.54	3219.00
348.01	3284.00
348.48	3253.00
348.95	3181.00
349.42	3215.00
349.89	3254.00
350.36	3214.00
350.83	3181.00
351.30	3250.00
351.77	3271.00
352.24	3243.00
352.71	3239.00
353.18	3226.00
353.65	3268.00
354.12	3241.00
354.59	3255.00
355.06	3241.00
355.53	3292.00
356.00	3198.00
356.47	3295.00
356.94	3216.00
357.41	3349.00
357.88	3306.00
358.35	3245.00
358.82	3220.00
359.28	3218.00
359.75	3185.00
360.22	3300.00
360.69	3274.00
361.16	3258.00
361.63	3246.00
362.10	3265.00
362.57	3229.00
363.04	3260.00
363.51	3331.00
363.98	3286.00
364.45	3242.00
364.92	3255.00
365.39	3213.00
365.86	3227.00
366.32	3302.00
366.79	3231.00
367.26	3829.00
367.73	3264.00
368.20	3223.00
368.67	3284.00
369.14	3246.00
369.61	3291.00
370.08	3244.00
370.55	3207.00
371.02	3803.00
371.48	3265.00
371.95	3198.00
372.42	3205.00
372.89	3247.00
373.36	3275.00
373.83	3188.00
374.30	3201.00
374.77	3254.00
375.23	3197.00
375.70	3293.00
376.17	3216.00
376.64	3166.00
377.11	3199.00
377.58	3250.00
378.05	3235.00
378.51	3255.00
378.98	3222.00
379.45	3246.00
379.92	3241.00
380.39	3349.00
380.86	3258.00
381.33	3322.00
381.79	3295.00
382.26	3186.00
382.73	3276.00
383.20	3250.00
383.67	3284.00
384.14	3279.00
384.60	3409.00
385.07	3219.00
385.54	3241.00
386.01	3230.00
386.48	3315.00
386.94	3218.00
387.41	3230.00
387.88	3305.00
388.35	3257.00
388.82	3317.00
389.28	3234.00
389.75	3254.00
390.22	3259.00
390.69	3281.00
391.16	3265.00
391.62	3245.00
392.09	3261.00
392.56	3234.00
393.03	3231.00
393.50	3333.00
393.96	3244.00
394.43	3290.00
394.90	3238.00
395.37	3338.00
395.83	3459.00
396.30	3245.00
396.77	3271.00
397.24	3332.00
397.70	3229.00
398.17	3274.00
398.64	3266.00
399.11	3258.00
399.57	3288.00
400.04	3259.00
400.51	3289.00
400.98	3273.00
401.44	3300.00
401.91	3329.00
402.38	3331.00
402.84	3287.00
403.31	3355.00
403.78	3302.00
404.25	3364.00
404.71	3391.00
405.18	3327.00
405.65	3229.00
406.12	3298.00
406.58	3290.00
407.05	3369.00
407.52	3294.00
407.98	3968.00
408.45	3305.00
408.92	3232.00
409.38	3328.00
409.85	3256.00
410.32	3357.00
410.78	3275.00
411.25	3328.00
411.72	3302.00
412.18	3246.00
412.65	3340.00
413.12	3270.00
413.59	3326.00
414.05	3293.00
414.52	3377.00
414.98	3299.00
415.45	3377.00
415.92	3313.00
416.38	3322.00
416.85	3353.00
417.32	3346.00
417.78	3305.00
418.25	3323.00
418.72	3332.00
419.18	3371.00
419.65	3280.00
420.12	3354.00
420.58	3315.00
421.05	3358.00
421.51	3315.00
421.98	3336.00
422.45	3324.00
422.91	3304.00
423.38	3331.00
423.85	3348.00
424.31	3315.00
424.78	3368.00
425.24	3305.00
425.71	3418.00
426.18	3324.00
426.64	3340.00
427.11	3341.00
427.57	3347.00
428.04	3307.00
428.51	3382.00
428.97	3320.00
429.44	3275.00
429.90	3299.00
430.37	3446.00
430.83	3272.00
431.30	3294.00
431.77	3371.00
432.23	3379.00
432.70	3322.00
433.16	3308.00
433.63	3324.00
434.09	3330.00
434.56	3359.00
435.03	3291.00
435.49	3358.00
435.96	3319.00
436.42	3278.00
436.89	3369.00
437.35	3322.00
437.82	3349.00
438.28	3261.00
438.75	3283.00
439.21	3480.00
439.68	3367.00
440.14	3332.00
440.61	3360.00
441.07	3297.00
441.54	3321.00
442.00	3468.00
442.47	3329.00
442.94	3344.00
443.40	3366.00
443.87	3319.00
444.33	3392.00
444.80	3389.00
445.26	3363.00
445.73	3356.00
446.19	3368.00
446.65	3349.00
447.12	3335.00
447.58	3343.00
448.05	3340.00
448.51	3348.00
448.98	3378.00
449.44	3373.00
449.91	3320.00
450.37	3327.00
450.84	3387.00
451.30	3382.00
451.77	3401.00
452.23	3326.00
452.70	3418.00
453.16	3340.00
453.62	3387.00
454.09	3376.00
454.55	3388.00
455.02	3331.00
455.48	3358.00
455.95	3408.00
456.41	3346.00
456.88	3393.00
457.34	3343.00
457.80	3360.00
458.27	3318.00
458.73	3367.00
459.20	3382.00
459.66	3378.00
460.13	3335.00
460.59	3296.00
461.05	3414.00
461.52	3338.00
461.98	3281.00
462.45	3230.00
462.91	3367.00
463.37	3265.00
463.84	3328.00
464.30	3282.00
464.76	3272.00
465.23	3256.00
465.69	3307.00
466.16	3274.00
466.62	3289.00
467.08	3275.00
467.55	3290.00
468.01	3279.00
468.48	3292.00
468.94	3237.00
469.40	3225.00
469.87	3249.00
470.33	3247.00
470.79	3225.00
471.26	3221.00
471.72	3217.00
472.18	3237.00
472.65	3233.00
473.11	3281.00
473.57	3253.00
474.04	3203.00
474.50	3220.00
474.96	3183.00
475.43	3264.00
475.89	3204.00
476.35	3264.00
476.82	3233.00
477.28	3251.00
477.74	3269.00
478.21	3283.00
478.67	3263.00
479.13	3194.00
479.59	3315.00
480.06	3258.00
480.52	3235.00
480.98	3210.00
481.45	3236.00
481.91	3235.00
482.37	3225.00
482.84	3211.00
483.30	3169.00
483.76	3232.00
484.22	3288.00
484.69	3247.00
485.15	3163.00
485.61	3151.00
486.07	3172.00
486.54	3166.00
487.00	3209.00
487.46	3154.00
487.92	3161.00
488.39	3209.00
488.85	3215.00
489.31	3223.00
489.77	3255.00
490.24	3187.00
490.70	3178.00
491.16	3153.00
491.62	3170.00
492.09	3148.00
492.55	3263.00
493.01	3257.00
493.47	3255.00
493.94	3265.00
494.40	3224.00
494.86	3241.00
495.32	3226.00
495.78	3246.00
496.25	3239.00
496.71	3256.00
497.17	3338.00
497.63	3334.00
498.09	3275.00
498.56	3308.00
499.02	3281.00
499.48	3388.00
499.94	3275.00
500.40	3315.00
500.87	3321.00
501.33	3338.00
501.79	3351.00
502.25	3309.00
502.71	3565.00
503.17	3352.00
503.64	3369.00
504.10	3385.00
504.56	3429.00
505.02	3463.00
505.48	3450.00
505.94	3507.00
506.40	3512.00
506.87	3440.00
507.33	3544.00
507.79	3505.00
508.25	3507.00
508.71	3536.00
509.17	3574.00
509.63	3586.00
510.10	3631.00
510.56	3607.00
511.02	3736.00
511.48	3793.00
511.94	3690.00
512.40	3673.00
512.86	3731.00
513.32	3812.00
513.78	3757.00
514.25	3858.00
514.71	4399.00
515.17	3819.00
515.63	3921.00
516.09	3958.00
516.55	3865.00
517.01	3988.00
517.47	4003.00
517.93	4044.00
518.39	4184.00
518.85	4092.00
519.32	4124.00
519.78	4181.00
520.24	4239.00
520.70	4299.00
521.16	4336.00
521.62	4442.00
522.08	4409.00
522.54	4456.00
523.00	4554.00
523.46	4558.00
523.92	4585.00
524.38	4769.00
524.84	4700.00
525.30	4734.00
525.76	4699.00
526.22	4664.00
526.68	4615.00
527.14	4687.00
527.60	4786.00
528.06	4860.00
528.52	4914.00
528.98	4905.00
529.44	4912.00
529.90	4981.00
530.36	5051.00
530.82	5003.00
531.28	5130.00
531.74	5029.00
532.20	4936.00
532.66	4985.00
533.12	5053.00
533.58	5082.00
534.04	5054.00
534.50	5097.00
534.96	5126.00
535.42	5244.00
535.88	5219.00
536.34	5210.00
536.80	5054.00
537.26	5237.00
537.72	5229.00
538.18	5208.00
538.64	5228.00
539.10	5192.00
539.56	5373.00
540.02	5110.00
540.48	5194.00
540.94	5153.00
541.40	5138.00
541.86	5252.00
542.32	5252.00
542.78	5196.00
543.24	5239.00
543.69	5180.00
544.15	5329.00
544.61	5227.00
545.07	5242.00
545.53	5262.00
545.99	5269.00
546.45	5246.00
546.91	5216.00
547.37	5261.00
547.83	5245.00
548.29	5273.00
548.74	5267.00
549.20	5229.00
549.66	5336.00
550.12	5276.00
550.58	5253.00
551.04	5279.00
551.50	5340.00
551.96	5377.00
552.42	5215.00
552.87	5208.00
553.33	5263.00
553.79	5310.00
554.25	5365.00
554.71	5322.00
555.17	5299.00
555.63	5395.00
556.08	5279.00
556.54	5258.00
557.00	5097.00
557.46	5207.00
557.92	5313.00
558.38	5116.00
558.83	5103.00
559.29	5101.00
559.75	5070.00
560.21	5064.00
560.67	5151.00
561.13	5121.00
561.58	5014.00
562.04	5062.00
562.50	5017.00
562.96	5059.00
563.42	5085.00
563.87	4998.00
564.33	4961.00
564.79	4928.00
565.25	4926.00
565.71	4880.00
566.16	4879.00
566.62	4884.00
567.08	4804.00
567.54	4860.00
568.00	4823.00
568.45	4715.00
568.91	4696.00
569.37	4762.00
569.83	4664.00
570.28	4597.00
570.74	4633.00
571.20	4580.00
571.66	4592.00
572.11	4601.00
572.57	4600.00
573.03	4524.00
573.49	4557.00
573.94	4562.00
574.40	4619.00
574.86	4515.00
575.32	4406.00
575.77	4423.00
576.23	4359.00
576.69	4443.00
577.15	4396.00
577.60	4346.00
578.06	4289.00
578.52	4382.00
578.97	4307.00
579.43	4285.00
579.89	4339.00
580.34	4278.00
580.80	4309.00
581.26	4329.00
581.72	4312.00
582.17	4274.00
582.63	4268.00
583.09	4260.00
583.54	4263.00
584.00	4212.00
584.46	4247.00
584.91	4210.00
585.37	4265.00
585.83	4179.00
586.28	4176.00
586.74	4153.00
587.20	4119.00
587.65	4200.00
588.11	4080.00
588.57	4040.00
589.02	3964.00
589.48	3955.00
589.94	3987.00
590.39	4069.00
590.85	4037.00
591.30	4032.00
591.76	4091.00
592.22	4019.00
592.67	4047.00
593.13	4033.00
593.59	4066.00
594.04	4003.00
594.50	4019.00
594.95	4038.00
595.41	3996.00
595.87	4014.00
596.32	4072.00
596.78	4054.00
597.23	4062.00
597.69	4000.00
598.15	3939.00
598.60	4002.00
599.06	4039.00
599.51	3949.00
599.97	4000.00
600.43	3987.00
600.88	3967.00
601.34	4000.00
601.79	3867.00
602.25	4089.00
602.70	3904.00
603.16	3970.00
603.61	3919.00
604.07	3922.00
604.53	3980.00
604.98	3921.00
605.44	3927.00
605.89	3909.00
606.35	3928.00
606.80	3903.00
607.26	3915.00
607.71	3859.00
608.17	3917.00
608.62	3856.00
609.08	3956.00
609.53	3872.00
609.99	3829.00
610.44	3756.00
610.90	3837.00
611.35	3765.00
611.81	3909.00
612.26	3791.00
612.72	3793.00
613.17	3849.00
613.63	3704.00
614.08	3682.00
614.54	3747.00
614.99	3652.00
615.45	3689.00
615.90	3703.00
616.36	3680.00
616.81	3692.00
617.27	3689.00
617.72	3762.00
618.18	3696.00
618.63	3665.00
619.09	3668.00
619.54	3698.00
619.99	3706.00
620.45	3721.00
620.90	3774.00
621.36	3619.00
621.81	3672.00
622.27	3714.00
622.72	3689.00
623.18	3616.00
623.63	3599.00
624.08	3688.00
624.54	3566.00
624.99	3643.00
625.45	3624.00
625.90	3601.00
626.35	3620.00
626.81	3654.00
627.26	3591.00
627.72	3599.00
628.17	3606.00
628.62	3555.00
629.08	3575.00
629.53	3647.00
629.99	3583.00
630.44	3615.00
630.89	3614.00
631.35	3599.00
631.80	3621.00
632.26	3622.00
632.71	3597.00
633.16	3583.00
633.62	3573.00
634.07	3564.00
634.52	3534.00
634.98	3567.00
635.43	3561.00
635.88	3511.00
636.34	3553.00
636.79	3525.00
637.24	3539.00
637.70	3586.00
638.15	3570.00
638.60	3508.00
639.06	3542.00
639.51	3471.00
639.96	3456.00
640.42	3470.00
640.87	3522.00
641.32	3420.00
641.78	3431.00
642.23	3450.00
642.68	3359.00
643.14	3430.00
643.59	3459.00
644.04	3420.00
644.49	3387.00
644.95	3396.00
645.40	3379.00
645.85	3410.00
646.31	3419.00
646.76	3379.00
647.21	3363.00
647.66	3360.00
648.12	3319.00
648.57	3311.00
649.02	3350.00
649.47	3301.00
649.93	3474.00
650.38	3301.00
650.83	3259.00
651.28	3275.00
651.74	3286.00
652.19	3313.00
652.64	3279.00
653.09	3301.00
653.55	3261.00
654.00	3290.00
654.45	3314.00
654.90	3255.00
655.35	3252.00
655.81	3244.00
656.26	3175.00
656.71	3218.00
657.16	3256.00
657.62	3271.00
658.07	3240.00
658.52	3264.00
658.97	3187.00
659.42	3449.00
659.88	3175.00
660.33	3298.00
660.78	3250.00
661.23	3187.00
661.68	3206.00
662.13	3209.00
662.59	3125.00
663.04	3207.00
663.49	3191.00
663.94	3181.00
664.39	3160.00
664.84	3165.00
665.30	3202.00
665.75	3134.00
666.20	3147.00
666.65	3150.00
667.10	3229.00
667.55	3185.00
668.00	3103.00
668.46	3172.00
668.91	3124.00
669.36	3246.00
669.81	3068.00
670.26	3132.00
670.71	3186.00
671.16	3113.00
671.61	3163.00
672.06	3198.00
672.52	3091.00
672.97	3099.00
673.42	3133.00
673.87	3240.00
674.32	3137.00
674.77	3140.00
675.22	3084.00
675.67	3101.00
676.12	3101.00
676.57	3086.00
677.02	3137.00
677.47	3141.00
677.93	3199.00
678.38	3078.00
678.83	3106.00
679.28	3146.00
679.73	3130.00
680.18	3113.00
680.63	3126.00
681.08	3036.00
681.53	3054.00
681.98	3118.00
682.43	3150.00
682.88	3161.00
683.33	3151.00
683.78	3145.00
684.23	3183.00
684.68	3183.00
685.13	3215.00
685.58	3186.00
686.03	3183.00
686.48	3124.00
686.93	3172.00
687.38	3156.00
687.83	3208.00
688.28	3217.00
688.73	3346.00
689.18	3275.00
689.63	3228.00
690.08	3303.00
690.53	3300.00
690.98	3307.00
691.43	3374.00
691.88	3407.00
692.33	3488.00
692.78	3470.00
693.23	3567.00
693.68	3616.00
694.13	3642.00
694.58	3659.00
695.03	3878.00
695.48	3818.00
695.93	3862.00
696.38	4017.00
696.83	4012.00
697.28	4021.00
697.72	4052.00
698.17	4132.00
698.62	4183.00
699.07	4276.00
699.52	4265.00
699.97	4347.00
700.42	4408.00
700.87	4520.00
701.32	4669.00
701.77	4521.00
702.22	4695.00
702.67	4645.00
703.11	4751.00
703.56	4866.00
704.01	4929.00
704.46	5040.00
704.91	5122.00
705.36	5213.00
705.81	5190.00
706.26	5224.00
706.70	5324.00
707.15	5448.00
707.60	5439.00
708.05	5541.00
708.50	5611.00
708.95	5621.00
709.40	5679.00
709.84	5683.00
710.29	5754.00
710.74	5846.00
711.19	5932.00
711.64	5924.00
712.09	6066.00
712.53	6023.00
712.98	6246.00
713.43	6183.00
713.88	6252.00
714.33	6231.00
714.78	6253.00
715.22	6305.00
715.67	6396.00
716.12	6339.00
716.57	6247.00
717.02	6025.00
717.46	5960.00
717.91	6002.00
718.36	5973.00
718.81	5826.00
719.26	5854.00
719.70	5951.00
720.15	5981.00
720.60	6198.00
721.05	6500.00
721.49	6748.00
721.94	6835.00
722.39	6888.00
722.84	6835.00
723.28	6593.00
723.73	6561.00
724.18	6528.00
724.63	6755.00
725.07	6655.00
725.52	6835.00
725.97	6850.00
726.42	7029.00
726.86	7111.00
727.31	6944.00
727.76	7001.00
728.21	7169.00
728.65	7130.00
729.10	7216.00
729.55	7281.00
729.99	7406.00
730.44	7366.00
730.89	7499.00
731.33	7625.00
731.78	7756.00
732.23	7959.00
732.68	8155.00
733.12	8174.00
733.57	8293.00
734.02	8522.00
734.46	8515.00
734.91	8569.00
735.36	8550.00
735.80	8669.00
736.25	8657.00
736.70	8668.00
737.14	8806.00
737.59	8886.00
738.04	8919.00
738.48	8831.00
738.93	8871.00
739.37	8927.00
739.82	8992.00
740.27	9138.00
740.71	9062.00
741.16	9072.00
741.61	9103.00
742.05	9183.00
742.50	9244.00
742.94	9199.00
743.39	9324.00
743.84	9420.00
744.28	9401.00
744.73	9467.00
745.18	9508.00
745.62	9556.00
746.07	9439.00
746.51	9415.00
746.96	9457.00
747.40	9405.00
747.85	9425.00
748.30	9481.00
748.74	9625.00
749.19	9465.00
749.63	9550.00
750.08	9521.00
750.52	9514.00
750.97	9447.00
751.42	9494.00
751.86	9474.00
752.31	9556.00
752.75	9501.00
753.20	9442.00
753.64	9518.00
754.09	9434.00
754.53	9552.00
754.98	9487.00
755.42	9476.00
755.87	9511.00
756.31	9483.00
756.76	9378.00
757.20	9403.00
757.65	9270.00
758.09	9121.00
758.54	9024.00
758.98	8373.00
759.43	7058.00
759.87	5750.00
760.32	4887.00
760.76	4732.00
761.21	5239.00
761.65	5981.00
762.10	6181.00
762.54	5996.00
762.99	5749.00
763.43	5799.00
763.88	6010.00
764.32	6298.00
764.77	6711.00
765.21	7142.00
765.66	7346.00
766.10	7733.00
766.54	7995.00
766.99	8299.00
767.43	8567.00
767.88	8718.00
768.32	8886.00
768.77	8963.00
769.21	9157.00
769.66	9173.00
770.10	9157.00
770.54	9250.00
770.99	9327.00
771.43	9208.00
771.88	9312.00
772.32	9274.00
772.76	9175.00
773.21	9214.00
773.65	9203.00
774.10	9119.00
774.54	9161.00
774.98	9201.00
775.43	9251.00
775.87	9299.00
776.31	9437.00
776.76	9380.00
777.20	9297.00
777.65	9302.00
778.09	9235.00
778.53	9219.00
778.98	9184.00
779.42	9315.00
779.86	9220.00
780.31	9146.00
780.75	9269.00
781.19	9157.00
781.64	9211.00
782.08	9199.00
782.52	9143.00
782.97	9059.00
783.41	9092.00
783.85	9032.00
784.30	9067.00
784.74	8872.00
785.18	8938.00
785.63	9016.00
786.07	8995.00
786.51	9006.00
786.95	9030.00
787.40	9016.00
787.84	8969.00
788.28	8860.00
788.73	8838.00
789.17	8809.00
789.61	8575.00
790.05	8611.00
790.50	8545.00
790.94	8552.00
791.38	8595.00
791.82	8656.00
792.27	8670.00
792.71	8503.00
793.15	8752.00
793.59	8646.00
794.04	8555.00
794.48	8553.00
794.92	8506.00
795.36	8414.00
795.81	8359.00
796.25	8266.00
796.69	8356.00
797.13	8400.00
797.57	8524.00
798.02	8428.00
798.46	8617.00
798.90	8523.00
799.34	8406.00
799.79	8497.00
800.23	8217.00
800.67	8172.00
801.11	8261.00
801.55	8196.00
801.99	8179.00
802.44	8318.00
802.88	8256.00
803.32	8349.00
803.76	8330.00
804.20	8370.00
804.64	8283.00
805.09	8292.00
805.53	8353.00
805.97	8408.00
806.41	8124.00
806.85	8217.00
807.29	8004.00
807.74	8131.00
808.18	8041.00
808.62	8119.00
809.06	8047.00
809.50	8010.00
809.94	8033.00
810.38	8073.00
810.82	8167.00
811.27	8064.00
811.71	7893.00
812.15	7743.00
812.59	7599.00
813.03	7566.00
813.47	7406.00
813.91	7220.00
814.35	7035.00
814.79	7104.00
815.23	7043.00
815.67	6954.00
816.12	6947.00
816.56	6890.00
817.00	7036.00
817.44	6937.00
817.88	7076.00
818.32	6954.00
818.76	7019.00
819.20	6917.00
819.64	6981.00
820.08	7068.00
820.52	7159.00
820.96	7307.00
821.40	7229.00
821.84	7144.00
822.28	6771.00
822.72	6723.00
823.16	6767.00
823.60	6864.00
824.04	7231.00
824.48	7390.00
824.92	7370.00
825.36	7333.00
825.80	7253.00
826.24	7133.00
826.68	7168.00
827.12	7124.00
827.56	7017.00
828.00	7051.00
828.44	7089.00
828.88	7150.00
829.32	7183.00
829.76	7237.00
830.20	7294.00
830.64	7206.00
831.08	7273.00
831.52	7146.00
831.96	7092.00
832.40	6945.00
832.84	7092.00
833.28	7121.00
833.72	7339.00
834.16	7246.00
834.60	7414.00
835.04	7533.00
835.48	7588.00
835.91	7519.00
836.35	7516.00
836.79	7423.00
837.23	7464.00
837.67	7384.00
838.11	7304.00
838.55	7359.00
838.99	7339.00
839.43	7388.00
839.87	7525.00
840.30	7533.00
840.74	7707.00
841.18	7619.00
841.62	7640.00
842.06	7635.00
842.50	7648.00
842.94	7496.00
843.38	7468.00
843.81	7363.00
844.25	7371.00
844.69	7200.00
845.13	7311.00
845.57	7268.00
846.01	7370.00
846.45	7419.00
846.88	7471.00
847.32	7612.00
847.76	7579.00
848.20	7590.00
848.64	7559.00
849.08	7501.00
849.51	7485.00
849.95	7301.00
850.39	7268.00
850.83	7468.00
851.27	7302.00
851.70	7265.00
852.14	7241.00
852.58	7149.00
853.02	7035.00
853.46	6913.00
853.89	6811.00
854.33	6836.00
854.77	7049.00
855.21	7384.00
855.65	7470.00
856.08	7600.00
856.52	7487.00
856.96	7513.00
857.40	7420.00
857.83	7305.00
858.27	7258.00
858.71	7114.00
859.15	7174.00
859.58	7198.00
860.02	7225.00
860.46	7330.00
860.89	7313.00
861.33	7441.00
861.77	7452.00
862.21	7548.00
862.64	7515.00
863.08	7500.00
863.52	7444.00
863.95	7334.00
864.39	7254.00
864.83	7054.00
865.27	6954.00
865.70	6875.00
866.14	6732.00
866.58	6706.00
867.01	6963.00
867.45	7129.00
867.89	7244.00
868.32	7290.00
868.76	7375.00
869.20	7430.00
869.63	7482.00
870.07	7394.00
870.51	7156.00
870.94	7079.00
871.38	7021.00
871.82	6945.00
872.25	6874.00
872.69	7054.00
873.13	6987.00
873.56	7140.00
874.00	7070.00
874.43	7241.00
874.87	7152.00
875.31	7348.00
875.74	7302.00
876.18	7338.00
876.61	7287.00
877.05	7218.00
877.49	7159.00
877.92	7057.00
878.36	6988.00
878.79	6915.00
879.23	6829.00
879.67	6798.00
880.10	6757.00
880.54	6808.00
880.97	6917.00
881.41	7009.00
881.84	7066.00
882.28	7209.00
882.72	7253.00
883.15	7323.00
883.59	7311.00
884.02	7305.00
884.46	7152.00
884.89	7119.00
885.33	7105.00
885.76	6830.00
886.20	6784.00
886.63	6763.00
887.07	6679.00
887.50	6649.00
887.94	6762.00
888.37	6805.00
888.81	7027.00
889.24	6887.00
889.68	7040.00
890.11	6997.00
890.55	7051.00
890.98	7111.00
891.42	7056.00
891.85	7000.00
892.29	6905.00
892.72	6805.00
893.16	6697.00
893.59	6611.00
894.03	6462.00
894.46	6416.00
894.90	6179.00
895.33	6070.00
895.77	6027.00
896.20	6030.00
896.63	5924.00
897.07	6019.00
897.50	6044.00
897.94	6020.00
898.37	6218.00
898.81	5941.00
899.24	5876.00
899.68	6118.00
900.11	6056.00
900.54	5907.00
900.98	5827.00
901.41	5829.00
901.85	5928.00
902.28	5773.00
902.71	5878.00
903.15	6078.00
903.58	6177.00
904.02	6225.00
904.45	6162.00
904.88	6182.00
905.32	6082.00
905.75	6232.00
906.18	6021.00
906.62	6095.00
907.05	5924.00
907.48	5918.00
907.92	5907.00
908.35	5868.00
908.79	5735.00
909.22	5785.00
909.65	5754.00
910.09	5700.00
910.52	5750.00
910.95	5683.00
911.38	5743.00
911.82	5623.00
912.25	5656.00
912.68	5699.00
913.12	5660.00
913.55	5795.00
913.98	5881.00
914.42	5866.00
914.85	6035.00
915.28	5774.00
915.72	5808.00
916.15	5669.00
916.58	5773.00
917.01	5625.00
917.45	5557.00
917.88	5618.00
918.31	5715.00
918.74	5844.00
919.18	5896.00
919.61	6035.00
920.04	5963.00
920.47	6093.00
920.91	6101.00
921.34	6033.00
921.77	6069.00
922.20	6094.00
922.64	6132.00
923.07	6129.00
923.50	6001.00
923.93	5880.00
924.37	5875.00
924.80	5800.00
925.23	5832.00
925.66	5744.00
926.09	5523.00
926.53	5430.00
926.96	5317.00
927.39	5347.00
927.82	5093.00
928.25	4883.00
928.69	4961.00
929.12	4901.00
929.55	4788.00
929.98	4732.00
930.41	4532.00
930.84	4473.00
931.28	4266.00
931.71	4228.00
932.14	4048.00
932.57	4059.00
933.00	3876.00
933.43	3886.00
933.86	3808.00
934.30	3724.00
934.73	3862.00
935.16	3746.00
935.59	3678.00
936.02	3799.00
936.45	3779.00
936.88	3704.00
937.31	3855.00
937.75	3882.00
938.18	3914.00
938.61	4073.00
939.04	4048.00
939.47	4112.00
939.90	4001.00
940.33	3997.00
940.76	3788.00
941.19	3855.00
941.62	3756.00
942.05	3764.00
942.48	3662.00
942.91	3584.00
943.35	3665.00
943.78	3663.00
944.21	3641.00
944.64	3711.00
945.07	3787.00
945.50	3710.00
945.93	3741.00
946.36	3829.00
946.79	3827.00
947.22	3860.00
947.65	3899.00
948.08	3770.00
948.51	3876.00
948.94	3848.00
949.37	3936.00
949.80	3857.00
950.23	3831.00
950.66	3847.00
951.09	3883.00
951.52	3761.00
951.95	3824.00
952.38	3861.00
952.81	3978.00
953.24	3998.00
953.67	4052.00
954.10	4019.00
954.53	4040.00
954.96	4051.00
955.39	4085.00
955.82	4168.00
956.25	4184.00
956.68	4302.00
957.11	4202.00
957.53	4160.00
957.96	4123.00
958.39	4076.00
958.82	4034.00
959.25	4035.00
959.68	4112.00
960.11	4179.00
960.54	4164.00
960.97	4337.00
961.40	4430.00
961.83	4425.00
962.26	4357.00
962.68	4513.00
963.11	4534.00
963.54	4566.00
963.97	4590.00
964.40	4551.00
964.83	4744.00
965.26	4604.00
965.69	4587.00
966.11	4587.00
966.54	4553.00
966.97	4662.00
967.40	4768.00
967.83	4841.00
968.26	4855.00
968.69	4781.00
969.11	4819.00
969.54	4738.00
969.97	4776.00
970.40	4916.00
970.83	4838.00
971.26	4894.00
971.68	4798.00
972.11	4826.00
972.54	4913.00
972.97	4864.00
973.40	4835.00
973.82	4869.00
974.25	4843.00
974.68	4752.00
975.11	4714.00
975.54	4727.00
975.96	4670.00
976.39	4700.00
976.82	4732.00
977.25	4681.00
977.67	4723.00
978.10	4729.00
978.53	4730.00
978.96	4798.00
979.38	4874.00
979.81	4864.00
980.24	4995.00
980.67	5046.00
981.09	4968.00
981.52	5053.00
981.95	5059.00
982.38	5081.00
982.80	5056.00
983.23	5140.00
983.66	5115.00
984.08	5131.00
984.51	5029.00
984.94	5018.00
985.37	5063.00
985.79	4973.00
986.22	4967.00
986.65	4918.00
987.07	4872.00
987.50	4912.00
987.93	4889.00
988.35	4908.00
988.78	4922.00
989.21	4916.00
989.63	4929.00
990.06	5030.00
990.49	5042.00
990.91	5174.00
991.34	5069.00
991.77	5085.00
992.19	5130.00
992.62	5076.00
993.05	5061.00
993.47	5075.00
993.90	5012.00
994.32	4957.00
994.75	4961.00
995.18	4898.00
995.60	4847.00
996.03	4803.00
996.45	4888.00
996.88	4848.00
997.31	4787.00
997.73	4789.00
998.16	4819.00
998.58	4861.00
999.01	4829.00
999.44	4881.00
999.86	4915.00
1000.29	4921.00
1000.71	4923.00
1001.14	4931.00
1001.56	4939.00
1001.99	4993.00
1002.41	4887.00
1002.84	4856.00
1003.27	4760.00
1003.69	4684.00
1004.12	4702.00
1004.54	4670.00
1004.97	4614.00
1005.39	4555.00
1005.82	4610.00
1006.24	4565.00
1006.67	4578.00
1007.09	4500.00
1007.52	4579.00
1007.94	4565.00
1008.37	4802.00
1008.79	4595.00
1009.22	4617.00
1009.64	4590.00
1010.07	4609.00
1010.49	4662.00
1010.92	4630.00
1011.34	4646.00
1011.77	4648.00
1012.19	4637.00
1012.62	4595.00
1013.04	4536.00
1013.46	4565.00
1013.89	4467.00
1014.31	4458.00
1014.74	4451.00
1015.16	4430.00
1015.59	4369.00
1016.01	4388.00
1016.44	4348.00
1016.86	5313.00
1017.28	4399.00
1017.71	4399.00
1018.13	4617.00
1018.56	4520.00
1018.98	4521.00
1019.40	4482.00
1019.83	4512.00
1020.25	4511.00
1020.68	4566.00
1021.10	4565.00
1021.52	4513.00
1021.95	4727.00
1022.37	4619.00
1022.79	4586.00
1023.22	4562.00
1023.64	4520.00
1024.07	4479.00
1024.49	4497.00
1024.91	4424.00
1025.34	4397.00
1025.76	4511.00
1026.18	4404.00
1026.61	4399.00
1027.03	4386.00
1027.45	4406.00
1027.88	4341.00
1028.30	4492.00
1028.72	4394.00
1029.15	4423.00
1029.57	4440.00
1029.99	4421.00
1030.41	4385.00
1030.84	4444.00
1031.26	4410.00
1031.68	4389.00
1032.11	4465.00
1032.53	4298.00
1032.95	4303.00
1033.37	4337.00
1033.80	4297.00
1034.22	4260.00
1034.64	4326.00
1035.06	4190.00
1035.49	4170.00
1035.91	4166.00
1036.33	4086.00
1036.75	4148.00
1037.18	4204.00
1037.60	4129.00
1038.02	4228.00
1038.44	4164.00
1038.87	4140.00
1039.29	4114.00
1039.71	4147.00
1040.13	4158.00
1040.55	4260.00
1040.98	4171.00
1041.40	4162.00
1041.82	4126.00
1042.24	4123.00
1042.66	4120.00
1043.09	4051.00
1043.51	4049.00
1043.93	3984.00
1044.35	3990.00
1044.77	3992.00
1045.20	3980.00
1045.62	3896.00
1046.04	3949.00
1046.46	3899.00
1046.88	3888.00
1047.30	3953.00
1047.72	3897.00
1048.15	3866.00
1048.57	3884.00
1048.99	3852.00
1049.41	3868.00
1049.83	3868.00
1050.25	3934.00
1050.67	3912.00
1051.09	3865.00
1051.52	3889.00
1051.94	3798.00
1052.36	3842.00
1052.78	3782.00
1053.20	3818.00
1053.62	3797.00
1054.04	3805.00
1054.46	3793.00
1054.88	3817.00
1055.30	3807.00
1055.72	3766.00
1056.14	3737.00
1056.57	3896.00
1056.99	3677.00
1057.41	3717.00
1057.83	3707.00
1058.25	3698.00
1058.67	3616.00
1059.09	3654.00
1059.51	3666.00
1059.93	3633.00
1060.35	3577.00
1060.77	3678.00
1061.19	3723.00
1061.61	3578.00
1062.03	3626.00
1062.45	3532.00
1062.87	3611.00
1063.29	3635.00
1063.71	3540.00
1064.13	3562.00
1064.55	3527.00
1064.97	3627.00
1065.39	3576.00
1065.81	3562.00
1066.23	3602.00
1066.65	3574.00
1067.07	3589.00
1067.49	3530.00
1067.91	3487.00
1068.33	3476.00
1068.75	3514.00
1069.17	3551.00
1069.59	3480.00
1070.00	3468.00
1070.42	3475.00
1070.84	3463.00
1071.26	3376.00
1071.68	3413.00
1072.10	3464.00
1072.52	3476.00
1072.94	3374.00
1073.36	3422.00
1073.78	3406.00
1074.20	3455.00
1074.62	3397.00
1075.03	3419.00
1075.45	3424.00
1075.87	3434.00
1076.29	3395.00
1076.71	3423.00
1077.13	3443.00
1077.55	3329.00
1077.97	3365.00
1078.38	3408.00
1078.80	3347.00
1079.22	3427.00
1079.64	3366.00
1080.06	3364.00
1080.48	3337.00
1080.89	3353.00
1081.31	3294.00
1081.73	3293.00
1082.15	3320.00
1082.57	3325.00
1082.99	3284.00
1083.40	3314.00
1083.82	3330.00
1084.24	3266.00
1084.66	3259.00
1085.08	3310.00
1085.49	3235.00
1085.91	3322.00
1086.33	4316.00
1086.75	3282.00
1087.17	3261.00
1087.58	3283.00
1088.00	3235.00
1088.42	3282.00
1088.84	3279.00
1089.25	3219.00
1089.67	3273.00
1090.09	3241.00
1090.51	3188.00
1090.92	3244.00
1091.34	3194.00
1091.76	3215.00
1092.18	3188.00
1092.59	3185.00
1093.01	3204.00
1093.43	3193.00
1093.84	3170.00
1094.26	3166.00
1094.68	3195.00
1095.10	3174.00
1095.51	3188.00
1095.93	3125.00
1096.35	3180.00
1096.76	3211.00
1097.18	3184.00
1097.60	3191.00
1098.01	3131.00
1098.43	3139.00
1098.85	3156.00
1099.26	3136.00
1099.68	3147.00
1100.10	3091.00
1100.51	3113.00
1100.93	3114.00
1101.35	3129.00
1101.76	3105.00
1102.18	3521.00
1102.60	3138.00
1103.01	3067.00
1103.43	3135.00
1103.84	3105.00
1104.26	3094.00
1104.68	3100.00
1105.09	2997.00
1105.51	3053.00
1105.92	3133.00
1106.34	3067.00
1106.76	3072.00
1107.17	3060.00
1107.59	3107.00
1108.00	2974.00
1108.42	3026.00
1108.83	2982.00
1109.25	3023.00
1109.67	3007.00
1110.08	3004.00
1110.50	2979.00
1110.91	3026.00
1111.33	2981.00
1111.74	2993.00
1112.16	2999.00
1112.57	3034.00
1112.99	2983.00
1113.41	3026.00
1113.82	2971.00
1114.24	2990.00
1114.65	2988.00
1115.07	2917.00
1115.48	2863.00
1115.90	2183.00
1116.31	2201.00
1116.73	2201.00
1117.14	2201.00
>>>>>End Processed Spectral Data<<<<<
