SpectraSuite Data File
++++++++++++++++++++++++++++++++++++
Date: Tue May 29 13:10:51 EEST 2018
User: CanSEE
Dark Spectrum Present: No
Reference Spectrum Present: No
Number of Sampled Component Spectra: 1
Spectrometers: MAYP11278
Integration Time (usec): 230000 (MAYP11278)
Spectra Averaged: 1 (MAYP11278)
Boxcar Smoothing: 0 (MAYP11278)
Correct for Electrical Dark: No (MAYP11278)
Strobe/Lamp Enabled: No (MAYP11278)
Correct for Detector Non-linearity: No (MAYP11278)
Correct for Stray Light: No (MAYP11278)
Number of Pixels in Processed Spectrum: 2068
>>>>>Begin Processed Spectral Data<<<<<
187.82	2337.00
188.30	2234.00
188.78	2210.00
189.26	2211.00
189.73	3195.00
190.21	3261.00
190.69	3396.00
191.17	3389.00
191.64	3454.00
192.12	3415.00
192.60	3385.00
193.07	3333.00
193.55	3417.00
194.03	3410.00
194.51	3429.00
194.98	3404.00
195.46	3438.00
195.94	3411.00
196.42	3399.00
196.89	3509.00
197.37	3443.00
197.85	3368.00
198.32	3394.00
198.80	3380.00
199.28	3471.00
199.76	3463.00
200.23	3407.00
200.71	3420.00
201.19	3454.00
201.66	3431.00
202.14	3456.00
202.62	3378.00
203.09	3454.00
203.57	3376.00
204.05	3463.00
204.53	3472.00
205.00	3385.00
205.48	3417.00
205.96	3497.00
206.43	3423.00
206.91	3429.00
207.39	3557.00
207.86	3473.00
208.34	3435.00
208.82	3434.00
209.29	3440.00
209.77	3454.00
210.25	3451.00
210.72	3444.00
211.20	3446.00
211.68	3438.00
212.15	3431.00
212.63	3475.00
213.11	3467.00
213.58	3430.00
214.06	3474.00
214.53	3434.00
215.01	3484.00
215.49	3418.00
215.96	3456.00
216.44	3451.00
216.92	3469.00
217.39	3443.00
217.87	3441.00
218.35	3485.00
218.82	3371.00
219.30	3395.00
219.77	3431.00
220.25	3394.00
220.73	3551.00
221.20	3397.00
221.68	3451.00
222.15	3445.00
222.63	3455.00
223.11	3421.00
223.58	3466.00
224.06	3475.00
224.53	3371.00
225.01	3405.00
225.49	3468.00
225.96	3401.00
226.44	3443.00
226.91	3476.00
227.39	3457.00
227.87	3466.00
228.34	3444.00
228.82	3500.00
229.29	3468.00
229.77	3437.00
230.24	3413.00
230.72	3465.00
231.20	3503.00
231.67	3440.00
232.15	3439.00
232.62	3406.00
233.10	3471.00
233.57	3455.00
234.05	3615.00
234.53	3443.00
235.00	3455.00
235.48	3444.00
235.95	3458.00
236.43	3470.00
236.90	3550.00
237.38	3429.00
237.85	3446.00
238.33	3447.00
238.80	3433.00
239.28	3455.00
239.75	3399.00
240.23	3445.00
240.71	3489.00
241.18	3421.00
241.66	3436.00
242.13	3449.00
242.61	3469.00
243.08	3376.00
243.56	3415.00
244.03	3492.00
244.51	3484.00
244.98	3431.00
245.46	3485.00
245.93	5257.00
246.41	3405.00
246.88	3469.00
247.36	3472.00
247.83	3447.00
248.31	3486.00
248.78	3356.00
249.26	3465.00
249.73	3458.00
250.21	3458.00
250.68	3526.00
251.16	3441.00
251.63	3510.00
252.10	3533.00
252.58	3425.00
253.05	3506.00
253.53	3462.00
254.00	3458.00
254.48	3473.00
254.95	3479.00
255.43	3499.00
255.90	3415.00
256.38	3456.00
256.85	3465.00
257.33	3523.00
257.80	3602.00
258.27	3458.00
258.75	3413.00
259.22	3466.00
259.70	3474.00
260.17	3513.00
260.65	3439.00
261.12	3409.00
261.59	3501.00
262.07	3420.00
262.54	3485.00
263.02	3437.00
263.49	3429.00
263.97	3488.00
264.44	3471.00
264.91	3451.00
265.39	3485.00
265.86	3463.00
266.34	3508.00
266.81	3435.00
267.28	3472.00
267.76	3479.00
268.23	3499.00
268.71	3378.00
269.18	3397.00
269.65	3422.00
270.13	3489.00
270.60	3482.00
271.08	3423.00
271.55	3450.00
272.02	3464.00
272.50	3421.00
272.97	3396.00
273.44	3434.00
273.92	3625.00
274.39	3495.00
274.87	3481.00
275.34	3413.00
275.81	3407.00
276.29	3442.00
276.76	3423.00
277.23	3398.00
277.71	3395.00
278.18	3331.00
278.65	3526.00
279.13	3376.00
279.60	3412.00
280.07	3741.00
280.55	3694.00
281.02	3748.00
281.50	3544.00
281.97	3519.00
282.44	3505.00
282.91	3482.00
283.39	3522.00
283.86	3487.00
284.33	3434.00
284.81	3515.00
285.28	3480.00
285.75	3473.00
286.23	3513.00
286.70	3441.00
287.17	3512.00
287.65	3573.00
288.12	3449.00
288.59	3473.00
289.07	3399.00
289.54	3541.00
290.01	3451.00
290.48	3468.00
290.96	3448.00
291.43	3512.00
291.90	3577.00
292.38	3444.00
292.85	3547.00
293.32	3507.00
293.79	3516.00
294.27	3475.00
294.74	3457.00
295.21	3492.00
295.69	3508.00
296.16	3580.00
296.63	3590.00
297.10	3496.00
297.58	3493.00
298.05	3519.00
298.52	3476.00
298.99	3505.00
299.47	3462.00
299.94	3505.00
300.41	3471.00
300.88	3515.00
301.36	3481.00
301.83	3502.00
302.30	3425.00
302.77	3543.00
303.25	3526.00
303.72	3457.00
304.19	3458.00
304.66	3465.00
305.13	3528.00
305.61	3499.00
306.08	3490.00
306.55	3509.00
307.02	3453.00
307.49	3454.00
307.97	3489.00
308.44	3475.00
308.91	3501.00
309.38	3499.00
309.86	3508.00
310.33	3484.00
310.80	3523.00
311.27	3460.00
311.74	3531.00
312.21	3504.00
312.69	3617.00
313.16	3490.00
313.63	3481.00
314.10	3508.00
314.57	3466.00
315.05	3468.00
315.52	3539.00
315.99	3475.00
316.46	3515.00
316.93	3517.00
317.40	3505.00
317.88	3655.00
318.35	3486.00
318.82	3499.00
319.29	3471.00
319.76	3525.00
320.23	3579.00
320.70	3526.00
321.18	3536.00
321.65	3421.00
322.12	3469.00
322.59	3573.00
323.06	3484.00
323.53	3636.00
324.00	3442.00
324.48	3539.00
324.95	3506.00
325.42	3497.00
325.89	3491.00
326.36	3482.00
326.83	3506.00
327.30	3536.00
327.77	3529.00
328.24	3549.00
328.72	3506.00
329.19	3510.00
329.66	3509.00
330.13	3505.00
330.60	3581.00
331.07	3498.00
331.54	3616.00
332.01	3515.00
332.48	3611.00
332.95	3527.00
333.43	3521.00
333.90	3579.00
334.37	3545.00
334.84	3527.00
335.31	3681.00
335.78	3503.00
336.25	3539.00
336.72	3467.00
337.19	3542.00
337.66	3479.00
338.13	3525.00
338.60	3605.00
339.07	3522.00
339.54	3489.00
340.01	3476.00
340.49	3518.00
340.96	3541.00
341.43	3592.00
341.90	3504.00
342.37	3553.00
342.84	3545.00
343.31	3516.00
343.78	3495.00
344.25	3487.00
344.72	3503.00
345.19	3505.00
345.66	3551.00
346.13	3523.00
346.60	3516.00
347.07	3559.00
347.54	3493.00
348.01	3554.00
348.48	3534.00
348.95	3448.00
349.42	3515.00
349.89	3557.00
350.36	3529.00
350.83	3501.00
351.30	3568.00
351.77	3617.00
352.24	3553.00
352.71	3517.00
353.18	3513.00
353.65	3566.00
354.12	3560.00
354.59	3553.00
355.06	3554.00
355.53	3628.00
356.00	3491.00
356.47	3626.00
356.94	3488.00
357.41	3665.00
357.88	3584.00
358.35	3459.00
358.82	3485.00
359.28	3533.00
359.75	3539.00
360.22	3608.00
360.69	3574.00
361.16	3493.00
361.63	3541.00
362.10	3527.00
362.57	3536.00
363.04	3523.00
363.51	3617.00
363.98	3539.00
364.45	3482.00
364.92	3573.00
365.39	3499.00
365.86	3504.00
366.32	3559.00
366.79	3519.00
367.26	4457.00
367.73	3863.00
368.20	3478.00
368.67	3587.00
369.14	3512.00
369.61	3554.00
370.08	3526.00
370.55	3521.00
371.02	4355.00
371.48	3526.00
371.95	3503.00
372.42	3489.00
372.89	3537.00
373.36	3538.00
373.83	3481.00
374.30	3474.00
374.77	3508.00
375.23	3454.00
375.70	3605.00
376.17	3541.00
376.64	3479.00
377.11	3504.00
377.58	3550.00
378.05	3563.00
378.51	3524.00
378.98	3499.00
379.45	3531.00
379.92	3528.00
380.39	3655.00
380.86	3523.00
381.33	3601.00
381.79	3611.00
382.26	3467.00
382.73	3471.00
383.20	3541.00
383.67	3567.00
384.14	3537.00
384.60	3777.00
385.07	3568.00
385.54	3510.00
386.01	3508.00
386.48	3609.00
386.94	3504.00
387.41	3518.00
387.88	3558.00
388.35	3533.00
388.82	3557.00
389.28	3507.00
389.75	3534.00
390.22	3491.00
390.69	3522.00
391.16	3523.00
391.62	3538.00
392.09	3532.00
392.56	3506.00
393.03	3471.00
393.50	3624.00
393.96	3553.00
394.43	3570.00
394.90	3505.00
395.37	3557.00
395.83	3744.00
396.30	3437.00
396.77	3574.00
397.24	3547.00
397.70	3450.00
398.17	3518.00
398.64	3512.00
399.11	3516.00
399.57	3618.00
400.04	3493.00
400.51	3569.00
400.98	3503.00
401.44	3550.00
401.91	3515.00
402.38	3550.00
402.84	3515.00
403.31	3584.00
403.78	3558.00
404.25	3603.00
404.71	3625.00
405.18	3584.00
405.65	3481.00
406.12	3589.00
406.58	3569.00
407.05	3622.00
407.52	3543.00
407.98	4089.00
408.45	3527.00
408.92	3528.00
409.38	3584.00
409.85	3515.00
410.32	3561.00
410.78	3492.00
411.25	3649.00
411.72	3515.00
412.18	3478.00
412.65	3596.00
413.12	3535.00
413.59	3616.00
414.05	3588.00
414.52	3628.00
414.98	3616.00
415.45	3641.00
415.92	3575.00
416.38	3503.00
416.85	3677.00
417.32	3625.00
417.78	3530.00
418.25	3643.00
418.72	3576.00
419.18	3638.00
419.65	3569.00
420.12	3630.00
420.58	3613.00
421.05	3601.00
421.51	3581.00
421.98	3649.00
422.45	3548.00
422.91	3590.00
423.38	3633.00
423.85	3659.00
424.31	3627.00
424.78	3687.00
425.24	3596.00
425.71	3663.00
426.18	3603.00
426.64	3670.00
427.11	3712.00
427.57	3627.00
428.04	3573.00
428.51	3681.00
428.97	3650.00
429.44	3588.00
429.90	3583.00
430.37	3730.00
430.83	3561.00
431.30	3619.00
431.77	3722.00
432.23	3734.00
432.70	3661.00
433.16	3601.00
433.63	3659.00
434.09	3597.00
434.56	3677.00
435.03	3606.00
435.49	3688.00
435.96	3708.00
436.42	3615.00
436.89	3698.00
437.35	3661.00
437.82	3697.00
438.28	3659.00
438.75	3693.00
439.21	3848.00
439.68	3706.00
440.14	3712.00
440.61	3750.00
441.07	3629.00
441.54	3710.00
442.00	3871.00
442.47	3660.00
442.94	3715.00
443.40	3707.00
443.87	3687.00
444.33	3803.00
444.80	3709.00
445.26	3718.00
445.73	3723.00
446.19	3749.00
446.65	3722.00
447.12	3758.00
447.58	3741.00
448.05	3714.00
448.51	3771.00
448.98	3769.00
449.44	3771.00
449.91	3721.00
450.37	3727.00
450.84	3715.00
451.30	3740.00
451.77	3784.00
452.23	3661.00
452.70	3795.00
453.16	3745.00
453.62	3780.00
454.09	3730.00
454.55	3805.00
455.02	3716.00
455.48	3748.00
455.95	3843.00
456.41	3694.00
456.88	3841.00
457.34	3751.00
457.80	3741.00
458.27	3714.00
458.73	3775.00
459.20	3789.00
459.66	3790.00
460.13	3729.00
460.59	3704.00
461.05	3820.00
461.52	3758.00
461.98	3716.00
462.45	3652.00
462.91	3756.00
463.37	3731.00
463.84	3709.00
464.30	3691.00
464.76	3627.00
465.23	3664.00
465.69	3731.00
466.16	3692.00
466.62	3692.00
467.08	3723.00
467.55	3645.00
468.01	3665.00
468.48	3664.00
468.94	3706.00
469.40	3631.00
469.87	3643.00
470.33	3648.00
470.79	3674.00
471.26	3659.00
471.72	3605.00
472.18	3640.00
472.65	3645.00
473.11	3724.00
473.57	3660.00
474.04	3627.00
474.50	3617.00
474.96	3580.00
475.43	3675.00
475.89	3637.00
476.35	3655.00
476.82	3667.00
477.28	3620.00
477.74	3750.00
478.21	3652.00
478.67	3724.00
479.13	3615.00
479.59	3749.00
480.06	3605.00
480.52	3643.00
480.98	3651.00
481.45	3689.00
481.91	3677.00
482.37	3585.00
482.84	3576.00
483.30	3554.00
483.76	3673.00
484.22	3715.00
484.69	3639.00
485.15	3613.00
485.61	3514.00
486.07	3577.00
486.54	3519.00
487.00	3633.00
487.46	3565.00
487.92	3587.00
488.39	3593.00
488.85	3625.00
489.31	3630.00
489.77	3706.00
490.24	3621.00
490.70	3643.00
491.16	3593.00
491.62	3579.00
492.09	3595.00
492.55	3712.00
493.01	3654.00
493.47	3657.00
493.94	3687.00
494.40	3685.00
494.86	3635.00
495.32	3618.00
495.78	3665.00
496.25	3668.00
496.71	3685.00
497.17	3757.00
497.63	3731.00
498.09	3657.00
498.56	3714.00
499.02	3674.00
499.48	3815.00
499.94	3709.00
500.40	3641.00
500.87	3731.00
501.33	3686.00
501.79	3781.00
502.25	3751.00
502.71	4088.00
503.17	3749.00
503.64	3712.00
504.10	3736.00
504.56	3763.00
505.02	3761.00
505.48	3770.00
505.94	3815.00
506.40	3898.00
506.87	3838.00
507.33	3919.00
507.79	3827.00
508.25	3829.00
508.71	3925.00
509.17	3868.00
509.63	3889.00
510.10	3992.00
510.56	3923.00
511.02	4033.00
511.48	4131.00
511.94	4002.00
512.40	3979.00
512.86	4002.00
513.32	4057.00
513.78	3985.00
514.25	4160.00
514.71	4770.00
515.17	4081.00
515.63	4174.00
516.09	4202.00
516.55	4173.00
517.01	4223.00
517.47	4214.00
517.93	4233.00
518.39	4415.00
518.85	4332.00
519.32	4376.00
519.78	4375.00
520.24	4459.00
520.70	4514.00
521.16	4610.00
521.62	4625.00
522.08	4587.00
522.54	4624.00
523.00	4794.00
523.46	4759.00
523.92	4797.00
524.38	4955.00
524.84	4876.00
525.30	4951.00
525.76	4899.00
526.22	4837.00
526.68	4779.00
527.14	4912.00
527.60	4987.00
528.06	5091.00
528.52	5136.00
528.98	5141.00
529.44	5084.00
529.90	5182.00
530.36	5239.00
530.82	5180.00
531.28	5373.00
531.74	5278.00
532.20	5211.00
532.66	5250.00
533.12	5267.00
533.58	5371.00
534.04	5335.00
534.50	5362.00
534.96	5381.00
535.42	5485.00
535.88	5422.00
536.34	5405.00
536.80	5366.00
537.26	5499.00
537.72	5447.00
538.18	5529.00
538.64	5596.00
539.10	5475.00
539.56	5715.00
540.02	5359.00
540.48	5483.00
540.94	5530.00
541.40	5538.00
541.86	5525.00
542.32	5552.00
542.78	5515.00
543.24	5728.00
543.69	5567.00
544.15	5767.00
544.61	5608.00
545.07	5633.00
545.53	5582.00
545.99	5733.00
546.45	5653.00
546.91	5629.00
547.37	5619.00
547.83	5626.00
548.29	5668.00
548.74	5727.00
549.20	5747.00
549.66	5811.00
550.12	5755.00
550.58	5642.00
551.04	5719.00
551.50	5763.00
551.96	5834.00
552.42	5792.00
552.87	5669.00
553.33	5780.00
553.79	5756.00
554.25	5759.00
554.71	5834.00
555.17	5747.00
555.63	5844.00
556.08	5741.00
556.54	5734.00
557.00	5632.00
557.46	5701.00
557.92	5746.00
558.38	5684.00
558.83	5501.00
559.29	5606.00
559.75	5569.00
560.21	5615.00
560.67	5613.00
561.13	5620.00
561.58	5594.00
562.04	5578.00
562.50	5533.00
562.96	5582.00
563.42	5665.00
563.87	5457.00
564.33	5570.00
564.79	5521.00
565.25	5462.00
565.71	5403.00
566.16	5457.00
566.62	5427.00
567.08	5439.00
567.54	5393.00
568.00	5403.00
568.45	5263.00
568.91	5275.00
569.37	5349.00
569.83	5222.00
570.28	5219.00
570.74	5153.00
571.20	5195.00
571.66	5193.00
572.11	5207.00
572.57	5231.00
573.03	5136.00
573.49	5144.00
573.94	5078.00
574.40	5072.00
574.86	5134.00
575.32	4946.00
575.77	5023.00
576.23	4932.00
576.69	5024.00
577.15	4921.00
577.60	4968.00
578.06	4906.00
578.52	4989.00
578.97	4925.00
579.43	4856.00
579.89	4926.00
580.34	4899.00
580.80	4825.00
581.26	4928.00
581.72	4857.00
582.17	4861.00
582.63	4763.00
583.09	4874.00
583.54	4871.00
584.00	4813.00
584.46	4833.00
584.91	4755.00
585.37	4905.00
585.83	4738.00
586.28	4778.00
586.74	4768.00
587.20	4804.00
587.65	4752.00
588.11	4675.00
588.57	4651.00
589.02	4523.00
589.48	4518.00
589.94	4601.00
590.39	4662.00
590.85	4579.00
591.30	4636.00
591.76	4669.00
592.22	4582.00
592.67	4561.00
593.13	4563.00
593.59	4636.00
594.04	4578.00
594.50	4585.00
594.95	4657.00
595.41	4572.00
595.87	4595.00
596.32	4662.00
596.78	4651.00
597.23	4667.00
597.69	4566.00
598.15	4541.00
598.60	4501.00
599.06	4643.00
599.51	4569.00
599.97	4638.00
600.43	4602.00
600.88	4503.00
601.34	4589.00
601.79	4461.00
602.25	4661.00
602.70	4475.00
603.16	4569.00
603.61	4523.00
604.07	4453.00
604.53	4549.00
604.98	4555.00
605.44	4504.00
605.89	4509.00
606.35	4424.00
606.80	4461.00
607.26	4464.00
607.71	4482.00
608.17	4488.00
608.62	4467.00
609.08	4572.00
609.53	4463.00
609.99	4424.00
610.44	4344.00
610.90	4393.00
611.35	4345.00
611.81	4401.00
612.26	4387.00
612.72	4379.00
613.17	4471.00
613.63	4271.00
614.08	4276.00
614.54	4221.00
614.99	4255.00
615.45	4293.00
615.90	4259.00
616.36	4211.00
616.81	4253.00
617.27	4226.00
617.72	4266.00
618.18	4239.00
618.63	4212.00
619.09	4181.00
619.54	4248.00
619.99	4239.00
620.45	4251.00
620.90	4307.00
621.36	4191.00
621.81	4266.00
622.27	4216.00
622.72	4198.00
623.18	4195.00
623.63	4139.00
624.08	4232.00
624.54	4187.00
624.99	4177.00
625.45	4167.00
625.90	4138.00
626.35	4151.00
626.81	4145.00
627.26	4106.00
627.72	4167.00
628.17	4177.00
628.62	4066.00
629.08	4119.00
629.53	4101.00
629.99	4064.00
630.44	4178.00
630.89	4122.00
631.35	4147.00
631.80	4123.00
632.26	4163.00
632.71	4126.00
633.16	4163.00
633.62	4107.00
634.07	4105.00
634.52	4081.00
634.98	4144.00
635.43	4089.00
635.88	4048.00
636.34	4087.00
636.79	4115.00
637.24	4043.00
637.70	4144.00
638.15	4137.00
638.60	4062.00
639.06	4011.00
639.51	4002.00
639.96	3990.00
640.42	4006.00
640.87	4122.00
641.32	3950.00
641.78	3994.00
642.23	3981.00
642.68	3941.00
643.14	3925.00
643.59	3963.00
644.04	3912.00
644.49	3893.00
644.95	3890.00
645.40	3858.00
645.85	3879.00
646.31	3872.00
646.76	3914.00
647.21	3882.00
647.66	3879.00
648.12	3861.00
648.57	3787.00
649.02	3870.00
649.47	3823.00
649.93	4003.00
650.38	3793.00
650.83	3803.00
651.28	3792.00
651.74	3791.00
652.19	3771.00
652.64	3837.00
653.09	3743.00
653.55	3784.00
654.00	3813.00
654.45	3751.00
654.90	3766.00
655.35	3702.00
655.81	3773.00
656.26	3646.00
656.71	3721.00
657.16	3757.00
657.62	3746.00
658.07	3730.00
658.52	3725.00
658.97	3694.00
659.42	3935.00
659.88	3667.00
660.33	3693.00
660.78	3697.00
661.23	3647.00
661.68	3666.00
662.13	3623.00
662.59	3598.00
663.04	3688.00
663.49	3632.00
663.94	3638.00
664.39	3588.00
664.84	3594.00
665.30	3636.00
665.75	3575.00
666.20	3644.00
666.65	3549.00
667.10	3713.00
667.55	3628.00
668.00	3553.00
668.46	3592.00
668.91	3553.00
669.36	3665.00
669.81	3517.00
670.26	3577.00
670.71	3608.00
671.16	3570.00
671.61	3591.00
672.06	3623.00
672.52	3545.00
672.97	3565.00
673.42	3587.00
673.87	3683.00
674.32	3581.00
674.77	3579.00
675.22	3445.00
675.67	3526.00
676.12	3531.00
676.57	3509.00
677.02	3505.00
677.47	3533.00
677.93	3666.00
678.38	3515.00
678.83	3518.00
679.28	3582.00
679.73	3506.00
680.18	3554.00
680.63	3564.00
681.08	3493.00
681.53	3478.00
681.98	3558.00
682.43	3544.00
682.88	3598.00
683.33	3600.00
683.78	3583.00
684.23	3648.00
684.68	3580.00
685.13	3604.00
685.58	3617.00
686.03	3570.00
686.48	3564.00
686.93	3530.00
687.38	3495.00
687.83	3607.00
688.28	3655.00
688.73	3776.00
689.18	3726.00
689.63	3627.00
690.08	3741.00
690.53	3792.00
690.98	3770.00
691.43	3832.00
691.88	3848.00
692.33	3916.00
692.78	4007.00
693.23	4071.00
693.68	4075.00
694.13	4083.00
694.58	4161.00
695.03	4390.00
695.48	4308.00
695.93	4341.00
696.38	4501.00
696.83	4499.00
697.28	4527.00
697.72	4617.00
698.17	4614.00
698.62	4732.00
699.07	4779.00
699.52	4808.00
699.97	4862.00
700.42	5006.00
700.87	5079.00
701.32	5329.00
701.77	5135.00
702.22	5295.00
702.67	5284.00
703.11	5415.00
703.56	5494.00
704.01	5530.00
704.46	5648.00
704.91	5780.00
705.36	5765.00
705.81	5810.00
706.26	5834.00
706.70	5915.00
707.15	5979.00
707.60	6059.00
708.05	6163.00
708.50	6225.00
708.95	6318.00
709.40	6306.00
709.84	6394.00
710.29	6433.00
710.74	6515.00
711.19	6670.00
711.64	6668.00
712.09	6753.00
712.53	6649.00
712.98	6810.00
713.43	6791.00
713.88	6884.00
714.33	6996.00
714.78	6930.00
715.22	6917.00
715.67	7040.00
716.12	6964.00
716.57	6767.00
717.02	6586.00
717.46	6460.00
717.91	6556.00
718.36	6513.00
718.81	6377.00
719.26	6414.00
719.70	6534.00
720.15	6616.00
720.60	6743.00
721.05	7069.00
721.49	7350.00
721.94	7547.00
722.39	7525.00
722.84	7288.00
723.28	7039.00
723.73	7149.00
724.18	7009.00
724.63	7214.00
725.07	7152.00
725.52	7271.00
725.97	7379.00
726.42	7492.00
726.86	7591.00
727.31	7441.00
727.76	7577.00
728.21	7665.00
728.65	7657.00
729.10	7628.00
729.55	7714.00
729.99	7931.00
730.44	7805.00
730.89	7993.00
731.33	8086.00
731.78	8299.00
732.23	8393.00
732.68	8584.00
733.12	8652.00
733.57	8769.00
734.02	8876.00
734.46	9036.00
734.91	8956.00
735.36	9014.00
735.80	9154.00
736.25	9134.00
736.70	9104.00
737.14	9225.00
737.59	9305.00
738.04	9253.00
738.48	9243.00
738.93	9297.00
739.37	9269.00
739.82	9474.00
740.27	9513.00
740.71	9424.00
741.16	9507.00
741.61	9507.00
742.05	9560.00
742.50	9677.00
742.94	9649.00
743.39	9713.00
743.84	9707.00
744.28	9769.00
744.73	9792.00
745.18	9819.00
745.62	9997.00
746.07	9996.00
746.51	9779.00
746.96	9888.00
747.40	9886.00
747.85	9834.00
748.30	9805.00
748.74	9790.00
749.19	9760.00
749.63	9884.00
750.08	9900.00
750.52	9819.00
750.97	9796.00
751.42	9823.00
751.86	9865.00
752.31	9869.00
752.75	9927.00
753.20	9775.00
753.64	9849.00
754.09	9853.00
754.53	9807.00
754.98	9825.00
755.42	9809.00
755.87	9779.00
756.31	9942.00
756.76	9759.00
757.20	9763.00
757.65	9600.00
758.09	9491.00
758.54	9236.00
758.98	8461.00
759.43	7211.00
759.87	5829.00
760.32	5063.00
760.76	5077.00
761.21	5574.00
761.65	6370.00
762.10	6471.00
762.54	6314.00
762.99	6019.00
763.43	6195.00
763.88	6392.00
764.32	6671.00
764.77	7097.00
765.21	7412.00
765.66	7737.00
766.10	8090.00
766.54	8374.00
766.99	8715.00
767.43	8928.00
767.88	9111.00
768.32	9248.00
768.77	9388.00
769.21	9523.00
769.66	9467.00
770.10	9571.00
770.54	9642.00
770.99	9680.00
771.43	9671.00
771.88	9649.00
772.32	9567.00
772.76	9510.00
773.21	9608.00
773.65	9632.00
774.10	9503.00
774.54	9557.00
774.98	9449.00
775.43	9697.00
775.87	9648.00
776.31	9726.00
776.76	9660.00
777.20	9715.00
777.65	9579.00
778.09	9534.00
778.53	9533.00
778.98	9555.00
779.42	9595.00
779.86	9602.00
780.31	9480.00
780.75	9547.00
781.19	9503.00
781.64	9514.00
782.08	9580.00
782.52	9526.00
782.97	9478.00
783.41	9485.00
783.85	9437.00
784.30	9369.00
784.74	9285.00
785.18	9350.00
785.63	9282.00
786.07	9377.00
786.51	9349.00
786.95	9348.00
787.40	9197.00
787.84	9243.00
788.28	9164.00
788.73	9163.00
789.17	9019.00
789.61	8918.00
790.05	9011.00
790.50	8949.00
790.94	8969.00
791.38	9012.00
791.82	8980.00
792.27	8954.00
792.71	8972.00
793.15	9200.00
793.59	9063.00
794.04	8876.00
794.48	8921.00
794.92	8839.00
795.36	8753.00
795.81	8683.00
796.25	8696.00
796.69	8692.00
797.13	8831.00
797.57	8839.00
798.02	8890.00
798.46	9019.00
798.90	8911.00
799.34	8790.00
799.79	8738.00
800.23	8638.00
800.67	8643.00
801.11	8666.00
801.55	8570.00
801.99	8429.00
802.44	8627.00
802.88	8643.00
803.32	8608.00
803.76	8642.00
804.20	8647.00
804.64	8743.00
805.09	8680.00
805.53	8741.00
805.97	8697.00
806.41	8613.00
806.85	8584.00
807.29	8435.00
807.74	8454.00
808.18	8305.00
808.62	8413.00
809.06	8331.00
809.50	8368.00
809.94	8375.00
810.38	8479.00
810.82	8503.00
811.27	8586.00
811.71	8233.00
812.15	8114.00
812.59	8043.00
813.03	7929.00
813.47	7687.00
813.91	7523.00
814.35	7492.00
814.79	7435.00
815.23	7320.00
815.67	7217.00
816.12	7265.00
816.56	7191.00
817.00	7360.00
817.44	7388.00
817.88	7445.00
818.32	7300.00
818.76	7307.00
819.20	7386.00
819.64	7412.00
820.08	7505.00
820.52	7579.00
820.96	7681.00
821.40	7515.00
821.84	7406.00
822.28	7039.00
822.72	7071.00
823.16	7116.00
823.60	7275.00
824.04	7699.00
824.48	7725.00
824.92	7719.00
825.36	7696.00
825.80	7582.00
826.24	7528.00
826.68	7443.00
827.12	7471.00
827.56	7496.00
828.00	7501.00
828.44	7549.00
828.88	7625.00
829.32	7574.00
829.76	7589.00
830.20	7775.00
830.64	7597.00
831.08	7674.00
831.52	7625.00
831.96	7416.00
832.40	7364.00
832.84	7509.00
833.28	7492.00
833.72	7647.00
834.16	7679.00
834.60	7714.00
835.04	7835.00
835.48	7963.00
835.91	7791.00
836.35	7878.00
836.79	7771.00
837.23	7833.00
837.67	7770.00
838.11	7741.00
838.55	7790.00
838.99	7743.00
839.43	7820.00
839.87	7900.00
840.30	7933.00
840.74	8084.00
841.18	8019.00
841.62	8059.00
842.06	8039.00
842.50	8056.00
842.94	8006.00
843.38	7936.00
843.81	7895.00
844.25	7781.00
844.69	7681.00
845.13	7708.00
845.57	7740.00
846.01	7766.00
846.45	7872.00
846.88	7786.00
847.32	7947.00
847.76	8052.00
848.20	8093.00
848.64	7940.00
849.08	7914.00
849.51	7928.00
849.95	7728.00
850.39	7639.00
850.83	7793.00
851.27	7676.00
851.70	7693.00
852.14	7647.00
852.58	7578.00
853.02	7423.00
853.46	7284.00
853.89	7247.00
854.33	7277.00
854.77	7360.00
855.21	7789.00
855.65	7908.00
856.08	8041.00
856.52	7950.00
856.96	7969.00
857.40	7915.00
857.83	7730.00
858.27	7641.00
858.71	7443.00
859.15	7587.00
859.58	7527.00
860.02	7622.00
860.46	7669.00
860.89	7760.00
861.33	7815.00
861.77	7872.00
862.21	7961.00
862.64	8007.00
863.08	7837.00
863.52	7935.00
863.95	7728.00
864.39	7662.00
864.83	7519.00
865.27	7263.00
865.70	7248.00
866.14	7185.00
866.58	7177.00
867.01	7447.00
867.45	7651.00
867.89	7759.00
868.32	7643.00
868.76	7833.00
869.20	7830.00
869.63	7949.00
870.07	7830.00
870.51	7583.00
870.94	7549.00
871.38	7442.00
871.82	7227.00
872.25	7313.00
872.69	7336.00
873.13	7363.00
873.56	7438.00
874.00	7483.00
874.43	7531.00
874.87	7521.00
875.31	7687.00
875.74	7584.00
876.18	7651.00
876.61	7705.00
877.05	7693.00
877.49	7583.00
877.92	7557.00
878.36	7420.00
878.79	7318.00
879.23	7329.00
879.67	7122.00
880.10	7180.00
880.54	7183.00
880.97	7253.00
881.41	7329.00
881.84	7443.00
882.28	7576.00
882.72	7677.00
883.15	7731.00
883.59	7654.00
884.02	7783.00
884.46	7615.00
884.89	7563.00
885.33	7499.00
885.76	7343.00
886.20	7272.00
886.63	7263.00
887.07	7094.00
887.50	7164.00
887.94	7168.00
888.37	7248.00
888.81	7443.00
889.24	7225.00
889.68	7424.00
890.11	7400.00
890.55	7443.00
890.98	7517.00
891.42	7507.00
891.85	7442.00
892.29	7375.00
892.72	7325.00
893.16	7113.00
893.59	7114.00
894.03	6936.00
894.46	6832.00
894.90	6568.00
895.33	6499.00
895.77	6447.00
896.20	6377.00
896.63	6417.00
897.07	6362.00
897.50	6283.00
897.94	6385.00
898.37	6595.00
898.81	6237.00
899.24	6313.00
899.68	6485.00
900.11	6436.00
900.54	6361.00
900.98	6235.00
901.41	6336.00
901.85	6355.00
902.28	6284.00
902.71	6299.00
903.15	6545.00
903.58	6603.00
904.02	6612.00
904.45	6548.00
904.88	6529.00
905.32	6481.00
905.75	6516.00
906.18	6445.00
906.62	6395.00
907.05	6354.00
907.48	6313.00
907.92	6289.00
908.35	6353.00
908.79	6119.00
909.22	6131.00
909.65	6111.00
910.09	6139.00
910.52	6294.00
910.95	6074.00
911.38	6108.00
911.82	6016.00
912.25	6021.00
912.68	6140.00
913.12	6038.00
913.55	6094.00
913.98	6223.00
914.42	6318.00
914.85	6422.00
915.28	6202.00
915.72	6196.00
916.15	6094.00
916.58	6243.00
917.01	6016.00
917.45	5987.00
917.88	6094.00
918.31	6161.00
918.74	6245.00
919.18	6309.00
919.61	6315.00
920.04	6391.00
920.47	6465.00
920.91	6495.00
921.34	6437.00
921.77	6421.00
922.20	6409.00
922.64	6500.00
923.07	6513.00
923.50	6413.00
923.93	6320.00
924.37	6312.00
924.80	6229.00
925.23	6235.00
925.66	6145.00
926.09	5951.00
926.53	5802.00
926.96	5651.00
927.39	5703.00
927.82	5495.00
928.25	5269.00
928.69	5263.00
929.12	5256.00
929.55	5095.00
929.98	5009.00
930.41	4814.00
930.84	4822.00
931.28	4594.00
931.71	4587.00
932.14	4344.00
932.57	4344.00
933.00	4195.00
933.43	4151.00
933.86	4067.00
934.30	4058.00
934.73	4197.00
935.16	4063.00
935.59	4034.00
936.02	4067.00
936.45	4035.00
936.88	4019.00
937.31	4223.00
937.75	4249.00
938.18	4280.00
938.61	4381.00
939.04	4510.00
939.47	4465.00
939.90	4384.00
940.33	4364.00
940.76	4137.00
941.19	4148.00
941.62	4023.00
942.05	4074.00
942.48	4026.00
942.91	3876.00
943.35	3998.00
943.78	3979.00
944.21	3925.00
944.64	4061.00
945.07	4058.00
945.50	4060.00
945.93	4070.00
946.36	4123.00
946.79	4107.00
947.22	4235.00
947.65	4197.00
948.08	4060.00
948.51	4209.00
948.94	4225.00
949.37	4293.00
949.80	4186.00
950.23	4122.00
950.66	4204.00
951.09	4266.00
951.52	4117.00
951.95	4183.00
952.38	4185.00
952.81	4381.00
953.24	4315.00
953.67	4309.00
954.10	4383.00
954.53	4387.00
954.96	4371.00
955.39	4443.00
955.82	4483.00
956.25	4491.00
956.68	4635.00
957.11	4547.00
957.53	4541.00
957.96	4475.00
958.39	4512.00
958.82	4399.00
959.25	4342.00
959.68	4528.00
960.11	4539.00
960.54	4551.00
960.97	4707.00
961.40	4753.00
961.83	4777.00
962.26	4721.00
962.68	4887.00
963.11	4941.00
963.54	4881.00
963.97	5010.00
964.40	4913.00
964.83	5071.00
965.26	5032.00
965.69	4931.00
966.11	5037.00
966.54	4959.00
966.97	5087.00
967.40	5154.00
967.83	5291.00
968.26	5218.00
968.69	5133.00
969.11	5245.00
969.54	5092.00
969.97	5158.00
970.40	5244.00
970.83	5234.00
971.26	5171.00
971.68	5183.00
972.11	5188.00
972.54	5293.00
972.97	5272.00
973.40	5279.00
973.82	5223.00
974.25	5285.00
974.68	5225.00
975.11	5149.00
975.54	5032.00
975.96	5100.00
976.39	5076.00
976.82	5112.00
977.25	5023.00
977.67	5095.00
978.10	5050.00
978.53	5116.00
978.96	5224.00
979.38	5254.00
979.81	5221.00
980.24	5322.00
980.67	5414.00
981.09	5403.00
981.52	5483.00
981.95	5453.00
982.38	5483.00
982.80	5463.00
983.23	5555.00
983.66	5558.00
984.08	5535.00
984.51	5406.00
984.94	5447.00
985.37	5453.00
985.79	5403.00
986.22	5264.00
986.65	5340.00
987.07	5254.00
987.50	5320.00
987.93	5317.00
988.35	5295.00
988.78	5332.00
989.21	5285.00
989.63	5379.00
990.06	5453.00
990.49	5539.00
990.91	5601.00
991.34	5465.00
991.77	5517.00
992.19	5514.00
992.62	5495.00
993.05	5463.00
993.47	5503.00
993.90	5429.00
994.32	5459.00
994.75	5341.00
995.18	5215.00
995.60	5209.00
996.03	5203.00
996.45	5194.00
996.88	5239.00
997.31	5119.00
997.73	5191.00
998.16	5149.00
998.58	5245.00
999.01	5207.00
999.44	5362.00
999.86	5328.00
1000.29	5245.00
1000.71	5256.00
1001.14	5311.00
1001.56	5284.00
1001.99	5314.00
1002.41	5255.00
1002.84	5264.00
1003.27	5145.00
1003.69	5185.00
1004.12	5113.00
1004.54	5089.00
1004.97	5005.00
1005.39	4949.00
1005.82	4965.00
1006.24	5036.00
1006.67	4923.00
1007.09	4962.00
1007.52	4937.00
1007.94	4885.00
1008.37	5139.00
1008.79	5006.00
1009.22	4985.00
1009.64	4998.00
1010.07	4955.00
1010.49	5024.00
1010.92	5021.00
1011.34	5000.00
1011.77	5070.00
1012.19	5035.00
1012.62	5033.00
1013.04	4927.00
1013.46	4954.00
1013.89	4830.00
1014.31	4883.00
1014.74	4747.00
1015.16	4798.00
1015.59	4730.00
1016.01	4813.00
1016.44	4778.00
1016.86	5628.00
1017.28	4731.00
1017.71	4746.00
1018.13	4963.00
1018.56	4852.00
1018.98	4881.00
1019.40	4797.00
1019.83	4917.00
1020.25	4866.00
1020.68	4923.00
1021.10	4950.00
1021.52	4931.00
1021.95	5073.00
1022.37	5007.00
1022.79	4925.00
1023.22	4937.00
1023.64	4899.00
1024.07	4889.00
1024.49	4908.00
1024.91	4717.00
1025.34	4718.00
1025.76	4931.00
1026.18	4784.00
1026.61	4764.00
1027.03	4747.00
1027.45	4791.00
1027.88	4731.00
1028.30	4881.00
1028.72	4739.00
1029.15	4739.00
1029.57	4767.00
1029.99	4859.00
1030.41	4719.00
1030.84	4808.00
1031.26	4891.00
1031.68	4825.00
1032.11	4778.00
1032.53	4697.00
1032.95	4707.00
1033.37	4680.00
1033.80	4715.00
1034.22	4575.00
1034.64	4773.00
1035.06	4594.00
1035.49	4543.00
1035.91	4520.00
1036.33	4486.00
1036.75	4564.00
1037.18	4553.00
1037.60	4544.00
1038.02	4477.00
1038.44	4572.00
1038.87	4477.00
1039.29	4426.00
1039.71	4505.00
1040.13	4469.00
1040.55	4599.00
1040.98	4581.00
1041.40	4520.00
1041.82	4564.00
1042.24	4490.00
1042.66	4487.00
1043.09	4368.00
1043.51	4386.00
1043.93	4361.00
1044.35	4326.00
1044.77	4343.00
1045.20	4353.00
1045.62	4232.00
1046.04	4277.00
1046.46	4337.00
1046.88	4237.00
1047.30	4283.00
1047.72	4249.00
1048.15	4261.00
1048.57	4151.00
1048.99	4215.00
1049.41	4193.00
1049.83	4221.00
1050.25	4282.00
1050.67	4247.00
1051.09	4207.00
1051.52	4204.00
1051.94	4088.00
1052.36	4211.00
1052.78	4074.00
1053.20	4129.00
1053.62	4099.00
1054.04	4133.00
1054.46	4123.00
1054.88	4192.00
1055.30	4139.00
1055.72	4146.00
1056.14	4078.00
1056.57	4248.00
1056.99	3988.00
1057.41	4088.00
1057.83	4002.00
1058.25	4015.00
1058.67	3961.00
1059.09	3983.00
1059.51	4028.00
1059.93	3981.00
1060.35	3937.00
1060.77	3961.00
1061.19	3976.00
1061.61	3955.00
1062.03	3910.00
1062.45	3879.00
1062.87	3914.00
1063.29	3972.00
1063.71	3871.00
1064.13	3827.00
1064.55	3809.00
1064.97	3877.00
1065.39	3864.00
1065.81	3903.00
1066.23	3867.00
1066.65	3810.00
1067.07	3933.00
1067.49	3882.00
1067.91	3800.00
1068.33	3789.00
1068.75	3876.00
1069.17	3872.00
1069.59	3843.00
1070.00	3781.00
1070.42	3799.00
1070.84	3772.00
1071.26	3712.00
1071.68	3712.00
1072.10	3817.00
1072.52	3752.00
1072.94	3716.00
1073.36	3711.00
1073.78	3720.00
1074.20	3710.00
1074.62	3683.00
1075.03	3678.00
1075.45	3706.00
1075.87	3767.00
1076.29	3695.00
1076.71	3754.00
1077.13	3762.00
1077.55	3621.00
1077.97	3687.00
1078.38	3678.00
1078.80	3708.00
1079.22	3722.00
1079.64	3650.00
1080.06	3601.00
1080.48	3700.00
1080.89	3672.00
1081.31	3611.00
1081.73	3613.00
1082.15	3614.00
1082.57	3651.00
1082.99	3574.00
1083.40	3577.00
1083.82	3642.00
1084.24	3557.00
1084.66	3615.00
1085.08	3620.00
1085.49	3549.00
1085.91	3609.00
1086.33	4887.00
1086.75	3604.00
1087.17	3551.00
1087.58	3579.00
1088.00	3567.00
1088.42	3597.00
1088.84	3564.00
1089.25	3455.00
1089.67	3571.00
1090.09	3540.00
1090.51	3473.00
1090.92	3583.00
1091.34	3524.00
1091.76	3516.00
1092.18	3471.00
1092.59	3478.00
1093.01	3477.00
1093.43	3484.00
1093.84	3481.00
1094.26	3460.00
1094.68	3479.00
1095.10	3465.00
1095.51	3488.00
1095.93	3430.00
1096.35	3484.00
1096.76	3495.00
1097.18	3494.00
1097.60	3439.00
1098.01	3453.00
1098.43	3419.00
1098.85	3439.00
1099.26	3424.00
1099.68	3409.00
1100.10	3367.00
1100.51	3401.00
1100.93	3389.00
1101.35	3387.00
1101.76	3379.00
1102.18	3857.00
1102.60	3465.00
1103.01	3317.00
1103.43	3401.00
1103.84	3364.00
1104.26	3354.00
1104.68	3358.00
1105.09	3289.00
1105.51	3309.00
1105.92	3394.00
1106.34	3280.00
1106.76	3363.00
1107.17	3364.00
1107.59	3386.00
1108.00	3259.00
1108.42	3317.00
1108.83	3271.00
1109.25	3316.00
1109.67	3240.00
1110.08	3287.00
1110.50	3233.00
1110.91	3276.00
1111.33	3278.00
1111.74	3237.00
1112.16	3296.00
1112.57	3304.00
1112.99	3281.00
1113.41	3282.00
1113.82	3224.00
1114.24	3301.00
1114.65	3230.00
1115.07	3149.00
1115.48	3095.00
1115.90	2184.00
1116.31	2207.00
1116.73	2206.00
1117.14	2211.00
>>>>>End Processed Spectral Data<<<<<
