SpectraSuite Data File
++++++++++++++++++++++++++++++++++++
Date: Tue May 29 13:11:52 EEST 2018
User: CanSEE
Dark Spectrum Present: No
Reference Spectrum Present: No
Number of Sampled Component Spectra: 1
Spectrometers: MAYP11278
Integration Time (usec): 230000 (MAYP11278)
Spectra Averaged: 1 (MAYP11278)
Boxcar Smoothing: 0 (MAYP11278)
Correct for Electrical Dark: No (MAYP11278)
Strobe/Lamp Enabled: No (MAYP11278)
Correct for Detector Non-linearity: No (MAYP11278)
Correct for Stray Light: No (MAYP11278)
Number of Pixels in Processed Spectrum: 2068
>>>>>Begin Processed Spectral Data<<<<<
187.82	2335.00
188.30	2231.00
188.78	2208.00
189.26	2214.00
189.73	3242.00
190.21	3339.00
190.69	3440.00
191.17	3423.00
191.64	3465.00
192.12	3433.00
192.60	3409.00
193.07	3366.00
193.55	3431.00
194.03	3421.00
194.51	3425.00
194.98	3393.00
195.46	3486.00
195.94	3443.00
196.42	3399.00
196.89	3557.00
197.37	3447.00
197.85	3397.00
198.32	3435.00
198.80	3397.00
199.28	3415.00
199.76	3488.00
200.23	3387.00
200.71	3459.00
201.19	3460.00
201.66	3452.00
202.14	3443.00
202.62	3415.00
203.09	3460.00
203.57	3410.00
204.05	3468.00
204.53	3481.00
205.00	3423.00
205.48	3403.00
205.96	3513.00
206.43	3403.00
206.91	3459.00
207.39	3560.00
207.86	3512.00
208.34	3512.00
208.82	3421.00
209.29	3480.00
209.77	3452.00
210.25	3443.00
210.72	3447.00
211.20	3496.00
211.68	3471.00
212.15	3426.00
212.63	3569.00
213.11	3465.00
213.58	3440.00
214.06	3527.00
214.53	3475.00
215.01	3499.00
215.49	3461.00
215.96	3511.00
216.44	3479.00
216.92	3463.00
217.39	3442.00
217.87	3487.00
218.35	3512.00
218.82	3427.00
219.30	3413.00
219.77	3431.00
220.25	3453.00
220.73	3555.00
221.20	3431.00
221.68	3474.00
222.15	3423.00
222.63	3467.00
223.11	3443.00
223.58	3507.00
224.06	3448.00
224.53	3433.00
225.01	3432.00
225.49	3427.00
225.96	3419.00
226.44	3460.00
226.91	3493.00
227.39	3449.00
227.87	3531.00
228.34	3488.00
228.82	3465.00
229.29	3445.00
229.77	3453.00
230.24	3448.00
230.72	3500.00
231.20	3535.00
231.67	3469.00
232.15	3455.00
232.62	3385.00
233.10	3459.00
233.57	3475.00
234.05	3655.00
234.53	3473.00
235.00	3461.00
235.48	3429.00
235.95	3487.00
236.43	3520.00
236.90	3535.00
237.38	3426.00
237.85	3472.00
238.33	3469.00
238.80	3442.00
239.28	3443.00
239.75	3421.00
240.23	3528.00
240.71	3474.00
241.18	3482.00
241.66	3473.00
242.13	3495.00
242.61	3516.00
243.08	3381.00
243.56	3464.00
244.03	3486.00
244.51	3521.00
244.98	3467.00
245.46	3531.00
245.93	4721.00
246.41	3377.00
246.88	3465.00
247.36	3503.00
247.83	3480.00
248.31	3489.00
248.78	3417.00
249.26	3474.00
249.73	3487.00
250.21	3500.00
250.68	3507.00
251.16	3485.00
251.63	3564.00
252.10	3509.00
252.58	3483.00
253.05	3563.00
253.53	3533.00
254.00	3453.00
254.48	3536.00
254.95	3501.00
255.43	3517.00
255.90	3465.00
256.38	3482.00
256.85	3508.00
257.33	3516.00
257.80	3631.00
258.27	3464.00
258.75	3471.00
259.22	3468.00
259.70	3503.00
260.17	3537.00
260.65	3483.00
261.12	3469.00
261.59	3529.00
262.07	3441.00
262.54	3539.00
263.02	3485.00
263.49	3417.00
263.97	3488.00
264.44	3531.00
264.91	3445.00
265.39	3509.00
265.86	3544.00
266.34	3520.00
266.81	3484.00
267.28	3440.00
267.76	3469.00
268.23	3486.00
268.71	3361.00
269.18	3379.00
269.65	3464.00
270.13	3497.00
270.60	3525.00
271.08	3498.00
271.55	3515.00
272.02	3449.00
272.50	3460.00
272.97	3407.00
273.44	3492.00
273.92	3592.00
274.39	3484.00
274.87	3505.00
275.34	3453.00
275.81	3443.00
276.29	3475.00
276.76	3519.00
277.23	3338.00
277.71	3407.00
278.18	3394.00
278.65	3562.00
279.13	3415.00
279.60	3439.00
280.07	3739.00
280.55	3683.00
281.02	3743.00
281.50	3570.00
281.97	3610.00
282.44	3537.00
282.91	3531.00
283.39	3555.00
283.86	3494.00
284.33	3454.00
284.81	3539.00
285.28	3534.00
285.75	3511.00
286.23	3524.00
286.70	3439.00
287.17	3545.00
287.65	3567.00
288.12	3495.00
288.59	3506.00
289.07	3395.00
289.54	3557.00
290.01	3442.00
290.48	3511.00
290.96	3521.00
291.43	3513.00
291.90	3569.00
292.38	3514.00
292.85	3541.00
293.32	3504.00
293.79	3523.00
294.27	3503.00
294.74	3493.00
295.21	3501.00
295.69	3507.00
296.16	3559.00
296.63	3532.00
297.10	3560.00
297.58	3511.00
298.05	3537.00
298.52	3500.00
298.99	3580.00
299.47	3467.00
299.94	3566.00
300.41	3489.00
300.88	3548.00
301.36	3518.00
301.83	3578.00
302.30	3481.00
302.77	3547.00
303.25	3574.00
303.72	3493.00
304.19	3507.00
304.66	3509.00
305.13	3529.00
305.61	3534.00
306.08	3514.00
306.55	3532.00
307.02	3538.00
307.49	3519.00
307.97	3525.00
308.44	3515.00
308.91	3562.00
309.38	3567.00
309.86	3505.00
310.33	3503.00
310.80	3531.00
311.27	3531.00
311.74	3590.00
312.21	3543.00
312.69	3568.00
313.16	3528.00
313.63	3520.00
314.10	3551.00
314.57	3479.00
315.05	3506.00
315.52	3569.00
315.99	3563.00
316.46	3527.00
316.93	3527.00
317.40	3523.00
317.88	3667.00
318.35	3529.00
318.82	3536.00
319.29	3515.00
319.76	3542.00
320.23	3615.00
320.70	3585.00
321.18	3519.00
321.65	3460.00
322.12	3466.00
322.59	3581.00
323.06	3553.00
323.53	3681.00
324.00	3503.00
324.48	3533.00
324.95	3538.00
325.42	3503.00
325.89	3520.00
326.36	3523.00
326.83	3568.00
327.30	3542.00
327.77	3568.00
328.24	3523.00
328.72	3518.00
329.19	3515.00
329.66	3553.00
330.13	3526.00
330.60	3611.00
331.07	3565.00
331.54	3629.00
332.01	3544.00
332.48	3642.00
332.95	3550.00
333.43	3572.00
333.90	3576.00
334.37	3577.00
334.84	3589.00
335.31	3667.00
335.78	3517.00
336.25	3504.00
336.72	3482.00
337.19	3581.00
337.66	3497.00
338.13	3530.00
338.60	3605.00
339.07	3573.00
339.54	3487.00
340.01	3521.00
340.49	3448.00
340.96	3570.00
341.43	3598.00
341.90	3515.00
342.37	3561.00
342.84	3585.00
343.31	3526.00
343.78	3512.00
344.25	3523.00
344.72	3521.00
345.19	3533.00
345.66	3576.00
346.13	3528.00
346.60	3507.00
347.07	3610.00
347.54	3543.00
348.01	3587.00
348.48	3559.00
348.95	3479.00
349.42	3570.00
349.89	3577.00
350.36	3535.00
350.83	3542.00
351.30	3565.00
351.77	3639.00
352.24	3572.00
352.71	3537.00
353.18	3524.00
353.65	3611.00
354.12	3564.00
354.59	3547.00
355.06	3510.00
355.53	3627.00
356.00	3503.00
356.47	3656.00
356.94	3517.00
357.41	3711.00
357.88	3585.00
358.35	3484.00
358.82	3546.00
359.28	3512.00
359.75	3548.00
360.22	3600.00
360.69	3596.00
361.16	3531.00
361.63	3545.00
362.10	3546.00
362.57	3544.00
363.04	3547.00
363.51	3687.00
363.98	3589.00
364.45	3525.00
364.92	3542.00
365.39	3496.00
365.86	3508.00
366.32	3548.00
366.79	3583.00
367.26	4473.00
367.73	3901.00
368.20	3507.00
368.67	3602.00
369.14	3506.00
369.61	3571.00
370.08	3575.00
370.55	3559.00
371.02	4415.00
371.48	3545.00
371.95	3534.00
372.42	3499.00
372.89	3534.00
373.36	3539.00
373.83	3513.00
374.30	3525.00
374.77	3570.00
375.23	3486.00
375.70	3596.00
376.17	3524.00
376.64	3500.00
377.11	3473.00
377.58	3543.00
378.05	3549.00
378.51	3514.00
378.98	3531.00
379.45	3560.00
379.92	3578.00
380.39	3731.00
380.86	3549.00
381.33	3609.00
381.79	3612.00
382.26	3484.00
382.73	3529.00
383.20	3557.00
383.67	3600.00
384.14	3565.00
384.60	3764.00
385.07	3558.00
385.54	3541.00
386.01	3587.00
386.48	3595.00
386.94	3532.00
387.41	3479.00
387.88	3571.00
388.35	3555.00
388.82	3574.00
389.28	3496.00
389.75	3551.00
390.22	3563.00
390.69	3594.00
391.16	3520.00
391.62	3543.00
392.09	3553.00
392.56	3567.00
393.03	3525.00
393.50	3663.00
393.96	3552.00
394.43	3585.00
394.90	3549.00
395.37	3577.00
395.83	3732.00
396.30	3468.00
396.77	3568.00
397.24	3568.00
397.70	3461.00
398.17	3531.00
398.64	3513.00
399.11	3518.00
399.57	3566.00
400.04	3477.00
400.51	3533.00
400.98	3497.00
401.44	3560.00
401.91	3531.00
402.38	3502.00
402.84	3504.00
403.31	3573.00
403.78	3543.00
404.25	3593.00
404.71	3611.00
405.18	3581.00
405.65	3473.00
406.12	3585.00
406.58	3565.00
407.05	3624.00
407.52	3551.00
407.98	4041.00
408.45	3596.00
408.92	3480.00
409.38	3594.00
409.85	3473.00
410.32	3586.00
410.78	3493.00
411.25	3577.00
411.72	3519.00
412.18	3443.00
412.65	3561.00
413.12	3509.00
413.59	3504.00
414.05	3574.00
414.52	3609.00
414.98	3516.00
415.45	3619.00
415.92	3489.00
416.38	3491.00
416.85	3588.00
417.32	3529.00
417.78	3477.00
418.25	3513.00
418.72	3536.00
419.18	3558.00
419.65	3474.00
420.12	3557.00
420.58	3513.00
421.05	3511.00
421.51	3487.00
421.98	3527.00
422.45	3465.00
422.91	3527.00
423.38	3571.00
423.85	3531.00
424.31	3526.00
424.78	3563.00
425.24	3521.00
425.71	3596.00
426.18	3506.00
426.64	3576.00
427.11	3528.00
427.57	3582.00
428.04	3471.00
428.51	3566.00
428.97	3520.00
429.44	3499.00
429.90	3548.00
430.37	3651.00
430.83	3501.00
431.30	3515.00
431.77	3577.00
432.23	3575.00
432.70	3564.00
433.16	3501.00
433.63	3543.00
434.09	3507.00
434.56	3555.00
435.03	3468.00
435.49	3573.00
435.96	3533.00
436.42	3453.00
436.89	3543.00
437.35	3495.00
437.82	3506.00
438.28	3499.00
438.75	3513.00
439.21	3655.00
439.68	3559.00
440.14	3586.00
440.61	3570.00
441.07	3491.00
441.54	3491.00
442.00	3641.00
442.47	3447.00
442.94	3502.00
443.40	3522.00
443.87	3468.00
444.33	3622.00
444.80	3524.00
445.26	3497.00
445.73	3509.00
446.19	3491.00
446.65	3503.00
447.12	3513.00
447.58	3521.00
448.05	3484.00
448.51	3558.00
448.98	3525.00
449.44	3521.00
449.91	3488.00
450.37	3473.00
450.84	3444.00
451.30	3492.00
451.77	3525.00
452.23	3457.00
452.70	3502.00
453.16	3490.00
453.62	3486.00
454.09	3484.00
454.55	3496.00
455.02	3449.00
455.48	3443.00
455.95	3508.00
456.41	3439.00
456.88	3502.00
457.34	3469.00
457.80	3435.00
458.27	3379.00
458.73	3421.00
459.20	3449.00
459.66	3425.00
460.13	3447.00
460.59	3357.00
461.05	3533.00
461.52	3461.00
461.98	3395.00
462.45	3353.00
462.91	3459.00
463.37	3352.00
463.84	3401.00
464.30	3367.00
464.76	3357.00
465.23	3385.00
465.69	3415.00
466.16	3390.00
466.62	3377.00
467.08	3404.00
467.55	3351.00
468.01	3375.00
468.48	3401.00
468.94	3395.00
469.40	3323.00
469.87	3332.00
470.33	3405.00
470.79	3330.00
471.26	3355.00
471.72	3290.00
472.18	3323.00
472.65	3339.00
473.11	3367.00
473.57	3347.00
474.04	3331.00
474.50	3292.00
474.96	3295.00
475.43	3380.00
475.89	3315.00
476.35	3345.00
476.82	3340.00
477.28	3296.00
477.74	3367.00
478.21	3306.00
478.67	3363.00
479.13	3265.00
479.59	3359.00
480.06	3297.00
480.52	3281.00
480.98	3255.00
481.45	3307.00
481.91	3284.00
482.37	3264.00
482.84	3276.00
483.30	3222.00
483.76	3317.00
484.22	3367.00
484.69	3285.00
485.15	3355.00
485.61	3214.00
486.07	3297.00
486.54	3256.00
487.00	3298.00
487.46	3209.00
487.92	3260.00
488.39	3295.00
488.85	3309.00
489.31	3276.00
489.77	3325.00
490.24	3216.00
490.70	3300.00
491.16	3248.00
491.62	3244.00
492.09	3220.00
492.55	3327.00
493.01	3278.00
493.47	3303.00
493.94	3246.00
494.40	3264.00
494.86	3257.00
495.32	3234.00
495.78	3265.00
496.25	3265.00
496.71	3268.00
497.17	3371.00
497.63	3317.00
498.09	3254.00
498.56	3260.00
499.02	3249.00
499.48	3362.00
499.94	3272.00
500.40	3266.00
500.87	3242.00
501.33	3227.00
501.79	3300.00
502.25	3260.00
502.71	3539.00
503.17	3256.00
503.64	3292.00
504.10	3262.00
504.56	3285.00
505.02	3268.00
505.48	3202.00
505.94	3288.00
506.40	3299.00
506.87	3270.00
507.33	3281.00
507.79	3300.00
508.25	3229.00
508.71	3223.00
509.17	3225.00
509.63	3258.00
510.10	3288.00
510.56	3243.00
511.02	3322.00
511.48	3310.00
511.94	3232.00
512.40	3230.00
512.86	3236.00
513.32	3302.00
513.78	3237.00
514.25	3327.00
514.71	3925.00
515.17	3175.00
515.63	3293.00
516.09	3311.00
516.55	3308.00
517.01	3395.00
517.47	3277.00
517.93	3250.00
518.39	3459.00
518.85	3263.00
519.32	3233.00
519.78	3221.00
520.24	3256.00
520.70	3283.00
521.16	3308.00
521.62	3328.00
522.08	3269.00
522.54	3292.00
523.00	3351.00
523.46	3345.00
523.92	3247.00
524.38	3417.00
524.84	3277.00
525.30	3296.00
525.76	3371.00
526.22	3290.00
526.68	3271.00
527.14	3318.00
527.60	3219.00
528.06	3303.00
528.52	3323.00
528.98	3256.00
529.44	3223.00
529.90	3299.00
530.36	3286.00
530.82	3236.00
531.28	3303.00
531.74	3281.00
532.20	3289.00
532.66	3253.00
533.12	3275.00
533.58	3247.00
534.04	3200.00
534.50	3236.00
534.96	3291.00
535.42	3297.00
535.88	3240.00
536.34	3321.00
536.80	3226.00
537.26	3310.00
537.72	3232.00
538.18	3262.00
538.64	3341.00
539.10	3319.00
539.56	3542.00
540.02	3192.00
540.48	3371.00
540.94	3296.00
541.40	3244.00
541.86	3311.00
542.32	3280.00
542.78	3276.00
543.24	3423.00
543.69	3234.00
544.15	3375.00
544.61	3295.00
545.07	3249.00
545.53	3269.00
545.99	3302.00
546.45	3295.00
546.91	3287.00
547.37	3335.00
547.83	3283.00
548.29	3293.00
548.74	3242.00
549.20	3253.00
549.66	3362.00
550.12	3257.00
550.58	3217.00
551.04	3289.00
551.50	3276.00
551.96	3373.00
552.42	3271.00
552.87	3230.00
553.33	3327.00
553.79	3267.00
554.25	3235.00
554.71	3293.00
555.17	3293.00
555.63	3407.00
556.08	3299.00
556.54	3346.00
557.00	3183.00
557.46	3292.00
557.92	3367.00
558.38	3220.00
558.83	3275.00
559.29	3245.00
559.75	3285.00
560.21	3272.00
560.67	3260.00
561.13	3257.00
561.58	3260.00
562.04	3256.00
562.50	3227.00
562.96	3261.00
563.42	3327.00
563.87	3249.00
564.33	3284.00
564.79	3254.00
565.25	3278.00
565.71	3286.00
566.16	3335.00
566.62	3247.00
567.08	3257.00
567.54	3301.00
568.00	3353.00
568.45	3272.00
568.91	3290.00
569.37	3315.00
569.83	3273.00
570.28	3271.00
570.74	3291.00
571.20	3317.00
571.66	3285.00
572.11	3293.00
572.57	3339.00
573.03	3207.00
573.49	3207.00
573.94	3268.00
574.40	3345.00
574.86	3296.00
575.32	3227.00
575.77	3284.00
576.23	3185.00
576.69	3327.00
577.15	3268.00
577.60	3273.00
578.06	3215.00
578.52	3330.00
578.97	3303.00
579.43	3259.00
579.89	3303.00
580.34	3305.00
580.80	3278.00
581.26	3243.00
581.72	3300.00
582.17	3276.00
582.63	3216.00
583.09	3261.00
583.54	3281.00
584.00	3272.00
584.46	3283.00
584.91	3255.00
585.37	3364.00
585.83	3245.00
586.28	3258.00
586.74	3252.00
587.20	3291.00
587.65	3327.00
588.11	3219.00
588.57	3311.00
589.02	3256.00
589.48	3256.00
589.94	3271.00
590.39	3286.00
590.85	3269.00
591.30	3297.00
591.76	3319.00
592.22	3245.00
592.67	3261.00
593.13	3256.00
593.59	3286.00
594.04	3279.00
594.50	3270.00
594.95	3310.00
595.41	3265.00
595.87	3221.00
596.32	3331.00
596.78	3335.00
597.23	3304.00
597.69	3326.00
598.15	3180.00
598.60	3292.00
599.06	3335.00
599.51	3258.00
599.97	3313.00
600.43	3325.00
600.88	3302.00
601.34	3297.00
601.79	3212.00
602.25	3396.00
602.70	3245.00
603.16	3245.00
603.61	3231.00
604.07	3199.00
604.53	3289.00
604.98	3225.00
605.44	3296.00
605.89	3288.00
606.35	3197.00
606.80	3281.00
607.26	3239.00
607.71	3273.00
608.17	3293.00
608.62	3274.00
609.08	3349.00
609.53	3307.00
609.99	3262.00
610.44	3264.00
610.90	3319.00
611.35	3185.00
611.81	3392.00
612.26	3304.00
612.72	3277.00
613.17	3375.00
613.63	3201.00
614.08	3214.00
614.54	3205.00
614.99	3238.00
615.45	3257.00
615.90	3279.00
616.36	3240.00
616.81	3254.00
617.27	3264.00
617.72	3273.00
618.18	3245.00
618.63	3249.00
619.09	3252.00
619.54	3297.00
619.99	3216.00
620.45	3308.00
620.90	3341.00
621.36	3283.00
621.81	3331.00
622.27	3342.00
622.72	3307.00
623.18	3274.00
623.63	3246.00
624.08	3309.00
624.54	3215.00
624.99	3298.00
625.45	3279.00
625.90	3224.00
626.35	3287.00
626.81	3267.00
627.26	3241.00
627.72	3349.00
628.17	3310.00
628.62	3197.00
629.08	3258.00
629.53	3267.00
629.99	3219.00
630.44	3317.00
630.89	3269.00
631.35	3308.00
631.80	3277.00
632.26	3311.00
632.71	3264.00
633.16	3256.00
633.62	3252.00
634.07	3242.00
634.52	3227.00
634.98	3284.00
635.43	3243.00
635.88	3202.00
636.34	3291.00
636.79	3262.00
637.24	3205.00
637.70	3320.00
638.15	3325.00
638.60	3219.00
639.06	3267.00
639.51	3252.00
639.96	3204.00
640.42	3263.00
640.87	3311.00
641.32	3211.00
641.78	3273.00
642.23	3250.00
642.68	3193.00
643.14	3239.00
643.59	3328.00
644.04	3272.00
644.49	3237.00
644.95	3208.00
645.40	3221.00
645.85	3267.00
646.31	3273.00
646.76	3309.00
647.21	3292.00
647.66	3240.00
648.12	3268.00
648.57	3173.00
649.02	3328.00
649.47	3307.00
649.93	3429.00
650.38	3211.00
650.83	3193.00
651.28	3259.00
651.74	3269.00
652.19	3232.00
652.64	3249.00
653.09	3231.00
653.55	3219.00
654.00	3277.00
654.45	3261.00
654.90	3259.00
655.35	3173.00
655.81	3278.00
656.26	3225.00
656.71	3232.00
657.16	3300.00
657.62	3309.00
658.07	3217.00
658.52	3270.00
658.97	3215.00
659.42	3449.00
659.88	3243.00
660.33	3305.00
660.78	3245.00
661.23	3210.00
661.68	3227.00
662.13	3208.00
662.59	3177.00
663.04	3296.00
663.49	3248.00
663.94	3219.00
664.39	3256.00
664.84	3239.00
665.30	3303.00
665.75	3225.00
666.20	3245.00
666.65	3257.00
667.10	3379.00
667.55	3315.00
668.00	3199.00
668.46	3272.00
668.91	3233.00
669.36	3338.00
669.81	3173.00
670.26	3259.00
670.71	3307.00
671.16	3261.00
671.61	3343.00
672.06	3375.00
672.52	3230.00
672.97	3271.00
673.42	3318.00
673.87	3413.00
674.32	3242.00
674.77	3289.00
675.22	3224.00
675.67	3221.00
676.12	3265.00
676.57	3259.00
677.02	3265.00
677.47	3272.00
677.93	3349.00
678.38	3213.00
678.83	3278.00
679.28	3284.00
679.73	3249.00
680.18	3231.00
680.63	3280.00
681.08	3159.00
681.53	3179.00
681.98	3229.00
682.43	3260.00
682.88	3303.00
683.33	3290.00
683.78	3273.00
684.23	3349.00
684.68	3293.00
685.13	3296.00
685.58	3272.00
686.03	3266.00
686.48	3250.00
686.93	3250.00
687.38	3251.00
687.83	3249.00
688.28	3234.00
688.73	3393.00
689.18	3317.00
689.63	3192.00
690.08	3259.00
690.53	3249.00
690.98	3220.00
691.43	3244.00
691.88	3228.00
692.33	3261.00
692.78	3220.00
693.23	3314.00
693.68	3273.00
694.13	3257.00
694.58	3270.00
695.03	3455.00
695.48	3285.00
695.93	3309.00
696.38	3325.00
696.83	3249.00
697.28	3246.00
697.72	3307.00
698.17	3221.00
698.62	3317.00
699.07	3262.00
699.52	3260.00
699.97	3275.00
700.42	3303.00
700.87	3315.00
701.32	3481.00
701.77	3233.00
702.22	3324.00
702.67	3207.00
703.11	3251.00
703.56	3260.00
704.01	3274.00
704.46	3252.00
704.91	3356.00
705.36	3329.00
705.81	3315.00
706.26	3217.00
706.70	3275.00
707.15	3309.00
707.60	3289.00
708.05	3290.00
708.50	3319.00
708.95	3275.00
709.40	3273.00
709.84	3308.00
710.29	3288.00
710.74	3306.00
711.19	3291.00
711.64	3294.00
712.09	3283.00
712.53	3261.00
712.98	3383.00
713.43	3282.00
713.88	3312.00
714.33	3341.00
714.78	3342.00
715.22	3272.00
715.67	3321.00
716.12	3293.00
716.57	3294.00
717.02	3260.00
717.46	3223.00
717.91	3283.00
718.36	3337.00
718.81	3268.00
719.26	3244.00
719.70	3284.00
720.15	3254.00
720.60	3262.00
721.05	3258.00
721.49	3310.00
721.94	3335.00
722.39	3325.00
722.84	3265.00
723.28	3246.00
723.73	3294.00
724.18	3231.00
724.63	3323.00
725.07	3267.00
725.52	3299.00
725.97	3319.00
726.42	3303.00
726.86	3399.00
727.31	3275.00
727.76	3345.00
728.21	3327.00
728.65	3271.00
729.10	3347.00
729.55	3301.00
729.99	3319.00
730.44	3284.00
730.89	3299.00
731.33	3328.00
731.78	3312.00
732.23	3340.00
732.68	3269.00
733.12	3378.00
733.57	3352.00
734.02	3279.00
734.46	3375.00
734.91	3363.00
735.36	3329.00
735.80	3441.00
736.25	3326.00
736.70	3333.00
737.14	3378.00
737.59	3359.00
738.04	3335.00
738.48	3329.00
738.93	3332.00
739.37	3285.00
739.82	3425.00
740.27	3369.00
740.71	3321.00
741.16	3335.00
741.61	3411.00
742.05	3355.00
742.50	3327.00
742.94	3306.00
743.39	3303.00
743.84	3355.00
744.28	3407.00
744.73	3403.00
745.18	3376.00
745.62	3375.00
746.07	3431.00
746.51	3248.00
746.96	3313.00
747.40	3281.00
747.85	3348.00
748.30	3357.00
748.74	3307.00
749.19	3390.00
749.63	3450.00
750.08	3373.00
750.52	3333.00
750.97	3277.00
751.42	3324.00
751.86	3384.00
752.31	3319.00
752.75	3449.00
753.20	3341.00
753.64	3304.00
754.09	3307.00
754.53	3357.00
754.98	3307.00
755.42	3342.00
755.87	3348.00
756.31	3401.00
756.76	3385.00
757.20	3411.00
757.65	3385.00
758.09	3340.00
758.54	3372.00
758.98	3310.00
759.43	3283.00
759.87	3275.00
760.32	3322.00
760.76	3293.00
761.21	3323.00
761.65	3352.00
762.10	3304.00
762.54	3267.00
762.99	3269.00
763.43	3364.00
763.88	3297.00
764.32	3265.00
764.77	3351.00
765.21	3334.00
765.66	3283.00
766.10	3297.00
766.54	3323.00
766.99	3333.00
767.43	3383.00
767.88	3327.00
768.32	3413.00
768.77	3335.00
769.21	3431.00
769.66	3335.00
770.10	3411.00
770.54	3287.00
770.99	3310.00
771.43	3371.00
771.88	3363.00
772.32	3380.00
772.76	3276.00
773.21	3345.00
773.65	3332.00
774.10	3272.00
774.54	3358.00
774.98	3342.00
775.43	3351.00
775.87	3324.00
776.31	3348.00
776.76	3339.00
777.20	3389.00
777.65	3397.00
778.09	3374.00
778.53	3346.00
778.98	3385.00
779.42	3484.00
779.86	3415.00
780.31	3353.00
780.75	3417.00
781.19	3392.00
781.64	3311.00
782.08	3363.00
782.52	3296.00
782.97	3382.00
783.41	3389.00
783.85	3415.00
784.30	3335.00
784.74	3349.00
785.18	3351.00
785.63	3344.00
786.07	3393.00
786.51	3370.00
786.95	3439.00
787.40	3310.00
787.84	3324.00
788.28	3353.00
788.73	3423.00
789.17	3333.00
789.61	3283.00
790.05	3366.00
790.50	3319.00
790.94	3320.00
791.38	3386.00
791.82	3344.00
792.27	3358.00
792.71	3349.00
793.15	3536.00
793.59	3415.00
794.04	3319.00
794.48	3365.00
794.92	3359.00
795.36	3325.00
795.81	3358.00
796.25	3372.00
796.69	3325.00
797.13	3373.00
797.57	3307.00
798.02	3317.00
798.46	3427.00
798.90	3409.00
799.34	3293.00
799.79	3429.00
800.23	3391.00
800.67	3311.00
801.11	3365.00
801.55	3342.00
801.99	3275.00
802.44	3377.00
802.88	3429.00
803.32	3386.00
803.76	3340.00
804.20	3366.00
804.64	3313.00
805.09	3423.00
805.53	3465.00
805.97	3431.00
806.41	3397.00
806.85	3435.00
807.29	3327.00
807.74	3343.00
808.18	3305.00
808.62	3355.00
809.06	3357.00
809.50	3310.00
809.94	3289.00
810.38	3373.00
810.82	3400.00
811.27	3525.00
811.71	3313.00
812.15	3292.00
812.59	3371.00
813.03	3427.00
813.47	3377.00
813.91	3335.00
814.35	3363.00
814.79	3368.00
815.23	3356.00
815.67	3288.00
816.12	3307.00
816.56	3292.00
817.00	3367.00
817.44	3360.00
817.88	3377.00
818.32	3306.00
818.76	3369.00
819.20	3405.00
819.64	3313.00
820.08	3335.00
820.52	3293.00
820.96	3335.00
821.40	3301.00
821.84	3392.00
822.28	3319.00
822.72	3309.00
823.16	3329.00
823.60	3276.00
824.04	3351.00
824.48	3373.00
824.92	3356.00
825.36	3381.00
825.80	3321.00
826.24	3351.00
826.68	3266.00
827.12	3348.00
827.56	3388.00
828.00	3373.00
828.44	3289.00
828.88	3392.00
829.32	3405.00
829.76	3311.00
830.20	3431.00
830.64	3290.00
831.08	3476.00
831.52	3405.00
831.96	3375.00
832.40	3288.00
832.84	3318.00
833.28	3300.00
833.72	3406.00
834.16	3367.00
834.60	3349.00
835.04	3328.00
835.48	3390.00
835.91	3341.00
836.35	3349.00
836.79	3317.00
837.23	3423.00
837.67	3280.00
838.11	3305.00
838.55	3378.00
838.99	3345.00
839.43	3423.00
839.87	3459.00
840.30	3366.00
840.74	3427.00
841.18	3273.00
841.62	3320.00
842.06	3278.00
842.50	3352.00
842.94	3401.00
843.38	3341.00
843.81	3367.00
844.25	3359.00
844.69	3317.00
845.13	3383.00
845.57	3374.00
846.01	3377.00
846.45	3304.00
846.88	3321.00
847.32	3381.00
847.76	3336.00
848.20	3331.00
848.64	3316.00
849.08	3378.00
849.51	3409.00
849.95	3387.00
850.39	3321.00
850.83	3413.00
851.27	3280.00
851.70	3413.00
852.14	3377.00
852.58	3289.00
853.02	3335.00
853.46	3368.00
853.89	3295.00
854.33	3379.00
854.77	3310.00
855.21	3327.00
855.65	3392.00
856.08	3457.00
856.52	3344.00
856.96	3357.00
857.40	3349.00
857.83	3341.00
858.27	3395.00
858.71	3258.00
859.15	3288.00
859.58	3346.00
860.02	3367.00
860.46	3365.00
860.89	3353.00
861.33	3330.00
861.77	3365.00
862.21	3390.00
862.64	3319.00
863.08	3343.00
863.52	3386.00
863.95	3365.00
864.39	3319.00
864.83	3321.00
865.27	3291.00
865.70	3369.00
866.14	3305.00
866.58	3376.00
867.01	3301.00
867.45	3389.00
867.89	3379.00
868.32	3284.00
868.76	3387.00
869.20	3341.00
869.63	3431.00
870.07	3488.00
870.51	3332.00
870.94	3351.00
871.38	3339.00
871.82	3337.00
872.25	3349.00
872.69	3357.00
873.13	3362.00
873.56	3397.00
874.00	3383.00
874.43	3305.00
874.87	3340.00
875.31	3383.00
875.74	3260.00
876.18	3360.00
876.61	3378.00
877.05	3373.00
877.49	3350.00
877.92	3377.00
878.36	3349.00
878.79	3325.00
879.23	3419.00
879.67	3312.00
880.10	3277.00
880.54	3322.00
880.97	3383.00
881.41	3387.00
881.84	3361.00
882.28	3330.00
882.72	3338.00
883.15	3328.00
883.59	3347.00
884.02	3376.00
884.46	3356.00
884.89	3319.00
885.33	3392.00
885.76	3313.00
886.20	3302.00
886.63	3447.00
887.07	3319.00
887.50	3320.00
887.94	3343.00
888.37	3363.00
888.81	3501.00
889.24	3288.00
889.68	3392.00
890.11	3315.00
890.55	3357.00
890.98	3357.00
891.42	3343.00
891.85	3322.00
892.29	3336.00
892.72	3293.00
893.16	3339.00
893.59	3347.00
894.03	3289.00
894.46	3335.00
894.90	3310.00
895.33	3314.00
895.77	3344.00
896.20	3346.00
896.63	3273.00
897.07	3261.00
897.50	3272.00
897.94	3359.00
898.37	3395.00
898.81	3317.00
899.24	3296.00
899.68	3350.00
900.11	3344.00
900.54	3366.00
900.98	3304.00
901.41	3418.00
901.85	3409.00
902.28	3305.00
902.71	3331.00
903.15	3445.00
903.58	3369.00
904.02	3316.00
904.45	3326.00
904.88	3318.00
905.32	3285.00
905.75	3399.00
906.18	3363.00
906.62	3369.00
907.05	3333.00
907.48	3307.00
907.92	3377.00
908.35	3417.00
908.79	3316.00
909.22	3297.00
909.65	3376.00
910.09	3324.00
910.52	3537.00
910.95	3315.00
911.38	3331.00
911.82	3316.00
912.25	3309.00
912.68	3351.00
913.12	3339.00
913.55	3333.00
913.98	3261.00
914.42	3290.00
914.85	3318.00
915.28	3316.00
915.72	3333.00
916.15	3326.00
916.58	3396.00
917.01	3291.00
917.45	3351.00
917.88	3297.00
918.31	3304.00
918.74	3325.00
919.18	3340.00
919.61	3362.00
920.04	3314.00
920.47	3434.00
920.91	3375.00
921.34	3347.00
921.77	3313.00
922.20	3309.00
922.64	3333.00
923.07	3419.00
923.50	3367.00
923.93	3274.00
924.37	3357.00
924.80	3299.00
925.23	3376.00
925.66	3447.00
926.09	3321.00
926.53	3349.00
926.96	3260.00
927.39	3445.00
927.82	3338.00
928.25	3295.00
928.69	3359.00
929.12	3329.00
929.55	3341.00
929.98	3351.00
930.41	3299.00
930.84	3349.00
931.28	3247.00
931.71	3351.00
932.14	3373.00
932.57	3397.00
933.00	3309.00
933.43	3325.00
933.86	3337.00
934.30	3301.00
934.73	3308.00
935.16	3248.00
935.59	3285.00
936.02	3291.00
936.45	3293.00
936.88	3249.00
937.31	3318.00
937.75	3279.00
938.18	3263.00
938.61	3367.00
939.04	3248.00
939.47	3322.00
939.90	3380.00
940.33	3405.00
940.76	3274.00
941.19	3347.00
941.62	3301.00
942.05	3287.00
942.48	3317.00
942.91	3266.00
943.35	3237.00
943.78	3306.00
944.21	3285.00
944.64	3335.00
945.07	3275.00
945.50	3317.00
945.93	3319.00
946.36	3365.00
946.79	3307.00
947.22	3302.00
947.65	3332.00
948.08	3257.00
948.51	3264.00
948.94	3296.00
949.37	3433.00
949.80	3361.00
950.23	3260.00
950.66	3260.00
951.09	3291.00
951.52	3255.00
951.95	3322.00
952.38	3274.00
952.81	3385.00
953.24	3252.00
953.67	3257.00
954.10	3286.00
954.53	3292.00
954.96	3260.00
955.39	3306.00
955.82	3273.00
956.25	3353.00
956.68	3431.00
957.11	3264.00
957.53	3326.00
957.96	3306.00
958.39	3255.00
958.82	3257.00
959.25	3295.00
959.68	3272.00
960.11	3316.00
960.54	3347.00
960.97	3327.00
961.40	3363.00
961.83	3315.00
962.26	3279.00
962.68	3299.00
963.11	3307.00
963.54	3283.00
963.97	3303.00
964.40	3315.00
964.83	3357.00
965.26	3315.00
965.69	3321.00
966.11	3338.00
966.54	3230.00
966.97	3296.00
967.40	3326.00
967.83	3525.00
968.26	3357.00
968.69	3297.00
969.11	3357.00
969.54	3265.00
969.97	3275.00
970.40	3362.00
970.83	3281.00
971.26	3341.00
971.68	3265.00
972.11	3250.00
972.54	3284.00
972.97	3326.00
973.40	3311.00
973.82	3334.00
974.25	3357.00
974.68	3287.00
975.11	3322.00
975.54	3291.00
975.96	3309.00
976.39	3295.00
976.82	3335.00
977.25	3319.00
977.67	3305.00
978.10	3323.00
978.53	3312.00
978.96	3383.00
979.38	3348.00
979.81	3306.00
980.24	3326.00
980.67	3395.00
981.09	3331.00
981.52	3333.00
981.95	3289.00
982.38	3313.00
982.80	3303.00
983.23	3358.00
983.66	3401.00
984.08	3287.00
984.51	3231.00
984.94	3307.00
985.37	3349.00
985.79	3343.00
986.22	3287.00
986.65	3353.00
987.07	3346.00
987.50	3341.00
987.93	3310.00
988.35	3346.00
988.78	3306.00
989.21	3297.00
989.63	3331.00
990.06	3353.00
990.49	3345.00
990.91	3447.00
991.34	3305.00
991.77	3308.00
992.19	3336.00
992.62	3272.00
993.05	3297.00
993.47	3355.00
993.90	3351.00
994.32	3316.00
994.75	3316.00
995.18	3274.00
995.60	3285.00
996.03	3269.00
996.45	3354.00
996.88	3399.00
997.31	3298.00
997.73	3349.00
998.16	3284.00
998.58	3371.00
999.01	3298.00
999.44	3323.00
999.86	3375.00
1000.29	3262.00
1000.71	3358.00
1001.14	3356.00
1001.56	3351.00
1001.99	3345.00
1002.41	3327.00
1002.84	3379.00
1003.27	3275.00
1003.69	3321.00
1004.12	3311.00
1004.54	3373.00
1004.97	3326.00
1005.39	3276.00
1005.82	3321.00
1006.24	3325.00
1006.67	3299.00
1007.09	3273.00
1007.52	3328.00
1007.94	3271.00
1008.37	3475.00
1008.79	3349.00
1009.22	3384.00
1009.64	3337.00
1010.07	3371.00
1010.49	3389.00
1010.92	3287.00
1011.34	3345.00
1011.77	3315.00
1012.19	3357.00
1012.62	3365.00
1013.04	3285.00
1013.46	3381.00
1013.89	3272.00
1014.31	3379.00
1014.74	3276.00
1015.16	3260.00
1015.59	3286.00
1016.01	3356.00
1016.44	3305.00
1016.86	4169.00
1017.28	3295.00
1017.71	3261.00
1018.13	3472.00
1018.56	3384.00
1018.98	3389.00
1019.40	3315.00
1019.83	3283.00
1020.25	3335.00
1020.68	3329.00
1021.10	3397.00
1021.52	3278.00
1021.95	3499.00
1022.37	3363.00
1022.79	3377.00
1023.22	3327.00
1023.64	3326.00
1024.07	3331.00
1024.49	3361.00
1024.91	3299.00
1025.34	3262.00
1025.76	3413.00
1026.18	3343.00
1026.61	3341.00
1027.03	3327.00
1027.45	3323.00
1027.88	3335.00
1028.30	3447.00
1028.72	3312.00
1029.15	3307.00
1029.57	3353.00
1029.99	3403.00
1030.41	3256.00
1030.84	3321.00
1031.26	3333.00
1031.68	3287.00
1032.11	3339.00
1032.53	3299.00
1032.95	3297.00
1033.37	3349.00
1033.80	3358.00
1034.22	3256.00
1034.64	3437.00
1035.06	3301.00
1035.49	3281.00
1035.91	3363.00
1036.33	3265.00
1036.75	3335.00
1037.18	3326.00
1037.60	3359.00
1038.02	3383.00
1038.44	3381.00
1038.87	3297.00
1039.29	3309.00
1039.71	3317.00
1040.13	3318.00
1040.55	3401.00
1040.98	3375.00
1041.40	3387.00
1041.82	3343.00
1042.24	3329.00
1042.66	3344.00
1043.09	3273.00
1043.51	3313.00
1043.93	3288.00
1044.35	3267.00
1044.77	3325.00
1045.20	3336.00
1045.62	3275.00
1046.04	3341.00
1046.46	3339.00
1046.88	3273.00
1047.30	3358.00
1047.72	3351.00
1048.15	3339.00
1048.57	3306.00
1048.99	3331.00
1049.41	3308.00
1049.83	3357.00
1050.25	3435.00
1050.67	3365.00
1051.09	3361.00
1051.52	3322.00
1051.94	3235.00
1052.36	3322.00
1052.78	3250.00
1053.20	3306.00
1053.62	3298.00
1054.04	3335.00
1054.46	3347.00
1054.88	3371.00
1055.30	3375.00
1055.72	3325.00
1056.14	3339.00
1056.57	3507.00
1056.99	3271.00
1057.41	3327.00
1057.83	3339.00
1058.25	3288.00
1058.67	3281.00
1059.09	3278.00
1059.51	3318.00
1059.93	3313.00
1060.35	3306.00
1060.77	3380.00
1061.19	3404.00
1061.61	3322.00
1062.03	3319.00
1062.45	3286.00
1062.87	3374.00
1063.29	3352.00
1063.71	3307.00
1064.13	3240.00
1064.55	3269.00
1064.97	3335.00
1065.39	3329.00
1065.81	3296.00
1066.23	3327.00
1066.65	3280.00
1067.07	3421.00
1067.49	3327.00
1067.91	3288.00
1068.33	3274.00
1068.75	3344.00
1069.17	3345.00
1069.59	3347.00
1070.00	3312.00
1070.42	3308.00
1070.84	3267.00
1071.26	3255.00
1071.68	3275.00
1072.10	3331.00
1072.52	3281.00
1072.94	3264.00
1073.36	3320.00
1073.78	3306.00
1074.20	3295.00
1074.62	3283.00
1075.03	3260.00
1075.45	3334.00
1075.87	3336.00
1076.29	3300.00
1076.71	3311.00
1077.13	3362.00
1077.55	3250.00
1077.97	3326.00
1078.38	3267.00
1078.80	3294.00
1079.22	3307.00
1079.64	3303.00
1080.06	3266.00
1080.48	3333.00
1080.89	3289.00
1081.31	3302.00
1081.73	3291.00
1082.15	3299.00
1082.57	3323.00
1082.99	3281.00
1083.40	3303.00
1083.82	3345.00
1084.24	3271.00
1084.66	3285.00
1085.08	3313.00
1085.49	3254.00
1085.91	3301.00
1086.33	4589.00
1086.75	3323.00
1087.17	3246.00
1087.58	3256.00
1088.00	3280.00
1088.42	3347.00
1088.84	3299.00
1089.25	3229.00
1089.67	3305.00
1090.09	3290.00
1090.51	3289.00
1090.92	3343.00
1091.34	3245.00
1091.76	3254.00
1092.18	3276.00
1092.59	3290.00
1093.01	3268.00
1093.43	3254.00
1093.84	3225.00
1094.26	3294.00
1094.68	3288.00
1095.10	3225.00
1095.51	3278.00
1095.93	3254.00
1096.35	3290.00
1096.76	3293.00
1097.18	3327.00
1097.60	3257.00
1098.01	3284.00
1098.43	3259.00
1098.85	3236.00
1099.26	3240.00
1099.68	3259.00
1100.10	3253.00
1100.51	3273.00
1100.93	3254.00
1101.35	3252.00
1101.76	3288.00
1102.18	3796.00
1102.60	3347.00
1103.01	3185.00
1103.43	3272.00
1103.84	3247.00
1104.26	3256.00
1104.68	3258.00
1105.09	3189.00
1105.51	3200.00
1105.92	3268.00
1106.34	3259.00
1106.76	3258.00
1107.17	3258.00
1107.59	3287.00
1108.00	3207.00
1108.42	3281.00
1108.83	3215.00
1109.25	3248.00
1109.67	3173.00
1110.08	3216.00
1110.50	3188.00
1110.91	3240.00
1111.33	3207.00
1111.74	3235.00
1112.16	3238.00
1112.57	3293.00
1112.99	3191.00
1113.41	3217.00
1113.82	3234.00
1114.24	3241.00
1114.65	3269.00
1115.07	3177.00
1115.48	3067.00
1115.90	2190.00
1116.31	2213.00
1116.73	2210.00
1117.14	2209.00
>>>>>End Processed Spectral Data<<<<<
