SpectraSuite Data File
++++++++++++++++++++++++++++++++++++
Date: Tue May 29 13:11:11 EEST 2018
User: CanSEE
Dark Spectrum Present: No
Reference Spectrum Present: No
Number of Sampled Component Spectra: 1
Spectrometers: MAYP11278
Integration Time (usec): 230000 (MAYP11278)
Spectra Averaged: 1 (MAYP11278)
Boxcar Smoothing: 0 (MAYP11278)
Correct for Electrical Dark: No (MAYP11278)
Strobe/Lamp Enabled: No (MAYP11278)
Correct for Detector Non-linearity: No (MAYP11278)
Correct for Stray Light: No (MAYP11278)
Number of Pixels in Processed Spectrum: 2068
>>>>>Begin Processed Spectral Data<<<<<
187.82	2344.00
188.30	2239.00
188.78	2208.00
189.26	2210.00
189.73	3252.00
190.21	3447.00
190.69	3543.00
191.17	3540.00
191.64	3589.00
192.12	3593.00
192.60	3562.00
193.07	3558.00
193.55	3637.00
194.03	3601.00
194.51	3607.00
194.98	3586.00
195.46	3633.00
195.94	3525.00
196.42	3586.00
196.89	3649.00
197.37	3548.00
197.85	3571.00
198.32	3553.00
198.80	3531.00
199.28	3579.00
199.76	3632.00
200.23	3554.00
200.71	3569.00
201.19	3593.00
201.66	3604.00
202.14	3609.00
202.62	3556.00
203.09	3609.00
203.57	3535.00
204.05	3569.00
204.53	3619.00
205.00	3563.00
205.48	3551.00
205.96	3654.00
206.43	3560.00
206.91	3544.00
207.39	3716.00
207.86	3573.00
208.34	3615.00
208.82	3551.00
209.29	3653.00
209.77	3568.00
210.25	3559.00
210.72	3557.00
211.20	3597.00
211.68	3587.00
212.15	3551.00
212.63	3675.00
213.11	3615.00
213.58	3525.00
214.06	3651.00
214.53	3580.00
215.01	3633.00
215.49	3578.00
215.96	3613.00
216.44	3589.00
216.92	3609.00
217.39	3545.00
217.87	3587.00
218.35	3600.00
218.82	3512.00
219.30	3495.00
219.77	3550.00
220.25	3591.00
220.73	3637.00
221.20	3519.00
221.68	3624.00
222.15	3556.00
222.63	3591.00
223.11	3583.00
223.58	3609.00
224.06	3552.00
224.53	3552.00
225.01	3499.00
225.49	3567.00
225.96	3534.00
226.44	3585.00
226.91	3606.00
227.39	3559.00
227.87	3600.00
228.34	3585.00
228.82	3563.00
229.29	3547.00
229.77	3570.00
230.24	3570.00
230.72	3611.00
231.20	3640.00
231.67	3521.00
232.15	3546.00
232.62	3514.00
233.10	3553.00
233.57	3558.00
234.05	3723.00
234.53	3606.00
235.00	3535.00
235.48	3552.00
235.95	3548.00
236.43	3592.00
236.90	3648.00
237.38	3550.00
237.85	3571.00
238.33	3548.00
238.80	3591.00
239.28	3609.00
239.75	3505.00
240.23	3568.00
240.71	3635.00
241.18	3584.00
241.66	3567.00
242.13	3609.00
242.61	3643.00
243.08	3532.00
243.56	3589.00
244.03	3594.00
244.51	3701.00
244.98	3573.00
245.46	3613.00
245.93	5437.00
246.41	3505.00
246.88	3612.00
247.36	3601.00
247.83	3640.00
248.31	3612.00
248.78	3519.00
249.26	3591.00
249.73	3591.00
250.21	3583.00
250.68	3667.00
251.16	3625.00
251.63	3671.00
252.10	3656.00
252.58	3570.00
253.05	3655.00
253.53	3585.00
254.00	3583.00
254.48	3626.00
254.95	3594.00
255.43	3631.00
255.90	3576.00
256.38	3630.00
256.85	3611.00
257.33	3634.00
257.80	3744.00
258.27	3632.00
258.75	3556.00
259.22	3567.00
259.70	3576.00
260.17	3709.00
260.65	3589.00
261.12	3593.00
261.59	3671.00
262.07	3572.00
262.54	3663.00
263.02	3583.00
263.49	3534.00
263.97	3627.00
264.44	3679.00
264.91	3597.00
265.39	3630.00
265.86	3633.00
266.34	3647.00
266.81	3593.00
267.28	3619.00
267.76	3632.00
268.23	3619.00
268.71	3537.00
269.18	3551.00
269.65	3591.00
270.13	3629.00
270.60	3629.00
271.08	3614.00
271.55	3608.00
272.02	3571.00
272.50	3594.00
272.97	3549.00
273.44	3624.00
273.92	3750.00
274.39	3603.00
274.87	3624.00
275.34	3574.00
275.81	3572.00
276.29	3585.00
276.76	3600.00
277.23	3431.00
277.71	3520.00
278.18	3441.00
278.65	3640.00
279.13	3515.00
279.60	3531.00
280.07	3867.00
280.55	3836.00
281.02	3889.00
281.50	3685.00
281.97	3721.00
282.44	3626.00
282.91	3633.00
283.39	3651.00
283.86	3581.00
284.33	3615.00
284.81	3650.00
285.28	3615.00
285.75	3663.00
286.23	3653.00
286.70	3578.00
287.17	3696.00
287.65	3669.00
288.12	3628.00
288.59	3611.00
289.07	3539.00
289.54	3675.00
290.01	3571.00
290.48	3607.00
290.96	3623.00
291.43	3628.00
291.90	3754.00
292.38	3568.00
292.85	3663.00
293.32	3587.00
293.79	3644.00
294.27	3645.00
294.74	3595.00
295.21	3642.00
295.69	3608.00
296.16	3729.00
296.63	3677.00
297.10	3655.00
297.58	3641.00
298.05	3686.00
298.52	3606.00
298.99	3698.00
299.47	3603.00
299.94	3643.00
300.41	3592.00
300.88	3625.00
301.36	3669.00
301.83	3664.00
302.30	3587.00
302.77	3695.00
303.25	3681.00
303.72	3589.00
304.19	3662.00
304.66	3583.00
305.13	3618.00
305.61	3631.00
306.08	3618.00
306.55	3590.00
307.02	3601.00
307.49	3584.00
307.97	3620.00
308.44	3585.00
308.91	3668.00
309.38	3619.00
309.86	3594.00
310.33	3597.00
310.80	3621.00
311.27	3622.00
311.74	3614.00
312.21	3645.00
312.69	3693.00
313.16	3589.00
313.63	3619.00
314.10	3637.00
314.57	3585.00
315.05	3554.00
315.52	3671.00
315.99	3668.00
316.46	3636.00
316.93	3622.00
317.40	3616.00
317.88	3785.00
318.35	3645.00
318.82	3629.00
319.29	3577.00
319.76	3691.00
320.23	3710.00
320.70	3640.00
321.18	3593.00
321.65	3567.00
322.12	3573.00
322.59	3693.00
323.06	3653.00
323.53	3788.00
324.00	3560.00
324.48	3623.00
324.95	3629.00
325.42	3627.00
325.89	3659.00
326.36	3644.00
326.83	3679.00
327.30	3708.00
327.77	3681.00
328.24	3685.00
328.72	3649.00
329.19	3645.00
329.66	3630.00
330.13	3608.00
330.60	3695.00
331.07	3659.00
331.54	3759.00
332.01	3652.00
332.48	3732.00
332.95	3694.00
333.43	3685.00
333.90	3760.00
334.37	3718.00
334.84	3673.00
335.31	3845.00
335.78	3611.00
336.25	3661.00
336.72	3639.00
337.19	3688.00
337.66	3625.00
338.13	3635.00
338.60	3739.00
339.07	3640.00
339.54	3572.00
340.01	3551.00
340.49	3545.00
340.96	3595.00
341.43	3613.00
341.90	3610.00
342.37	3585.00
342.84	3641.00
343.31	3578.00
343.78	3566.00
344.25	3610.00
344.72	3594.00
345.19	3590.00
345.66	3625.00
346.13	3579.00
346.60	3574.00
347.07	3680.00
347.54	3562.00
348.01	3617.00
348.48	3617.00
348.95	3571.00
349.42	3612.00
349.89	3671.00
350.36	3649.00
350.83	3555.00
351.30	3621.00
351.77	3669.00
352.24	3634.00
352.71	3609.00
353.18	3608.00
353.65	3645.00
354.12	3611.00
354.59	3625.00
355.06	3602.00
355.53	3685.00
356.00	3573.00
356.47	3688.00
356.94	3552.00
357.41	3695.00
357.88	3621.00
358.35	3549.00
358.82	3566.00
359.28	3595.00
359.75	3581.00
360.22	3669.00
360.69	3609.00
361.16	3568.00
361.63	3613.00
362.10	3617.00
362.57	3592.00
363.04	3639.00
363.51	3674.00
363.98	3623.00
364.45	3594.00
364.92	3678.00
365.39	3578.00
365.86	3578.00
366.32	3657.00
366.79	3603.00
367.26	4527.00
367.73	3931.00
368.20	3600.00
368.67	3651.00
369.14	3555.00
369.61	3647.00
370.08	3675.00
370.55	3606.00
371.02	4507.00
371.48	3587.00
371.95	3592.00
372.42	3582.00
372.89	3603.00
373.36	3629.00
373.83	3589.00
374.30	3571.00
374.77	3625.00
375.23	3569.00
375.70	3683.00
376.17	3612.00
376.64	3587.00
377.11	3555.00
377.58	3653.00
378.05	3663.00
378.51	3621.00
378.98	3627.00
379.45	3631.00
379.92	3675.00
380.39	3764.00
380.86	3647.00
381.33	3691.00
381.79	3703.00
382.26	3556.00
382.73	3671.00
383.20	3625.00
383.67	3687.00
384.14	3610.00
384.60	3830.00
385.07	3652.00
385.54	3640.00
386.01	3592.00
386.48	3757.00
386.94	3569.00
387.41	3584.00
387.88	3676.00
388.35	3624.00
388.82	3717.00
389.28	3642.00
389.75	3686.00
390.22	3649.00
390.69	3659.00
391.16	3661.00
391.62	3631.00
392.09	3634.00
392.56	3637.00
393.03	3631.00
393.50	3754.00
393.96	3631.00
394.43	3744.00
394.90	3594.00
395.37	3711.00
395.83	3878.00
396.30	3585.00
396.77	3671.00
397.24	3683.00
397.70	3593.00
398.17	3653.00
398.64	3648.00
399.11	3634.00
399.57	3735.00
400.04	3595.00
400.51	3683.00
400.98	3659.00
401.44	3697.00
401.91	3639.00
402.38	3667.00
402.84	3631.00
403.31	3740.00
403.78	3711.00
404.25	3773.00
404.71	3744.00
405.18	3708.00
405.65	3650.00
406.12	3719.00
406.58	3741.00
407.05	3739.00
407.52	3702.00
407.98	4281.00
408.45	3770.00
408.92	3681.00
409.38	3790.00
409.85	3697.00
410.32	3777.00
410.78	3721.00
411.25	3814.00
411.72	3765.00
412.18	3718.00
412.65	3834.00
413.12	3813.00
413.59	3836.00
414.05	3825.00
414.52	3887.00
414.98	3810.00
415.45	3890.00
415.92	3825.00
416.38	3867.00
416.85	3961.00
417.32	3893.00
417.78	3866.00
418.25	3917.00
418.72	3901.00
419.18	4004.00
419.65	3913.00
420.12	3996.00
420.58	3929.00
421.05	4002.00
421.51	3990.00
421.98	4015.00
422.45	3975.00
422.91	4049.00
423.38	4089.00
423.85	4081.00
424.31	4045.00
424.78	4101.00
425.24	4097.00
425.71	4187.00
426.18	4114.00
426.64	4165.00
427.11	4186.00
427.57	4205.00
428.04	4085.00
428.51	4167.00
428.97	4103.00
429.44	4119.00
429.90	4071.00
430.37	4211.00
430.83	4064.00
431.30	4237.00
431.77	4331.00
432.23	4320.00
432.70	4276.00
433.16	4295.00
433.63	4340.00
434.09	4260.00
434.56	4393.00
435.03	4326.00
435.49	4394.00
435.96	4401.00
436.42	4390.00
436.89	4473.00
437.35	4374.00
437.82	4354.00
438.28	4372.00
438.75	4444.00
439.21	4615.00
439.68	4523.00
440.14	4515.00
440.61	4579.00
441.07	4551.00
441.54	4563.00
442.00	4757.00
442.47	4624.00
442.94	4661.00
443.40	4675.00
443.87	4659.00
444.33	4723.00
444.80	4733.00
445.26	4654.00
445.73	4728.00
446.19	4735.00
446.65	4743.00
447.12	4841.00
447.58	4768.00
448.05	4794.00
448.51	4930.00
448.98	4915.00
449.44	4932.00
449.91	4947.00
450.37	4971.00
450.84	5053.00
451.30	5029.00
451.77	5038.00
452.23	4948.00
452.70	4989.00
453.16	4997.00
453.62	4997.00
454.09	5070.00
454.55	5105.00
455.02	5074.00
455.48	5104.00
455.95	5190.00
456.41	5143.00
456.88	5147.00
457.34	5104.00
457.80	5150.00
458.27	5057.00
458.73	5159.00
459.20	5224.00
459.66	5184.00
460.13	5137.00
460.59	5146.00
461.05	5291.00
461.52	5281.00
461.98	5185.00
462.45	5220.00
462.91	5211.00
463.37	5219.00
463.84	5207.00
464.30	5203.00
464.76	5162.00
465.23	5183.00
465.69	5285.00
466.16	5189.00
466.62	5172.00
467.08	5262.00
467.55	5200.00
468.01	5184.00
468.48	5252.00
468.94	5188.00
469.40	5167.00
469.87	5145.00
470.33	5177.00
470.79	5274.00
471.26	5223.00
471.72	5272.00
472.18	5274.00
472.65	5249.00
473.11	5401.00
473.57	5365.00
474.04	5390.00
474.50	5368.00
474.96	5340.00
475.43	5345.00
475.89	5336.00
476.35	5387.00
476.82	5370.00
477.28	5461.00
477.74	5523.00
478.21	5439.00
478.67	5491.00
479.13	5395.00
479.59	5566.00
480.06	5493.00
480.52	5509.00
480.98	5483.00
481.45	5552.00
481.91	5518.00
482.37	5495.00
482.84	5563.00
483.30	5443.00
483.76	5477.00
484.22	5557.00
484.69	5482.00
485.15	5296.00
485.61	5159.00
486.07	5243.00
486.54	5201.00
487.00	5424.00
487.46	5423.00
487.92	5479.00
488.39	5530.00
488.85	5562.00
489.31	5717.00
489.77	5743.00
490.24	5729.00
490.70	5669.00
491.16	5631.00
491.62	5594.00
492.09	5541.00
492.55	5755.00
493.01	5801.00
493.47	5791.00
493.94	5875.00
494.40	5838.00
494.86	5881.00
495.32	5889.00
495.78	5919.00
496.25	6001.00
496.71	6044.00
497.17	6188.00
497.63	6140.00
498.09	6061.00
498.56	6068.00
499.02	6229.00
499.48	6393.00
499.94	6209.00
500.40	6168.00
500.87	6300.00
501.33	6260.00
501.79	6404.00
502.25	6490.00
502.71	6913.00
503.17	6688.00
503.64	6638.00
504.10	6743.00
504.56	6940.00
505.02	7063.00
505.48	7261.00
505.94	7271.00
506.40	7351.00
506.87	7412.00
507.33	7441.00
507.79	7579.00
508.25	7681.00
508.71	7841.00
509.17	7979.00
509.63	8063.00
510.10	8163.00
510.56	8306.00
511.02	8489.00
511.48	8820.00
511.94	8822.00
512.40	8912.00
512.86	8959.00
513.32	9083.00
513.78	9016.00
514.25	9426.00
514.71	10306.00
515.17	9787.00
515.63	10145.00
516.09	9955.00
516.55	9565.00
517.01	9877.00
517.47	10401.00
517.93	10479.00
518.39	10866.00
518.85	11362.00
519.32	11679.00
519.78	12051.00
520.24	12267.00
520.70	12527.00
521.16	12927.00
521.62	13409.00
522.08	13405.00
522.54	13411.00
523.00	13914.00
523.46	14492.00
523.92	14933.00
524.38	15133.00
524.84	15342.00
525.30	15610.00
525.76	15525.00
526.22	14991.00
526.68	14951.00
527.14	15566.00
527.60	16270.00
528.06	16832.00
528.52	17406.00
528.98	17691.00
529.44	17579.00
529.90	17849.00
530.36	18389.00
530.82	18754.00
531.28	18789.00
531.74	18574.00
532.20	18391.00
532.66	18295.00
533.12	18712.00
533.58	19182.00
534.04	19255.00
534.50	19598.00
534.96	19987.00
535.42	20460.00
535.88	20513.00
536.34	20033.00
536.80	19789.00
537.26	20408.00
537.72	20773.00
538.18	20779.00
538.64	20919.00
539.10	20513.00
539.56	20669.00
540.02	20422.00
540.48	20389.00
540.94	20803.00
541.40	21226.00
541.86	21437.00
542.32	21432.00
542.78	21452.00
543.24	21783.00
543.69	22089.00
544.15	22299.00
544.61	22154.00
545.07	22401.00
545.53	22383.00
545.99	22597.00
546.45	22816.00
546.91	22799.00
547.37	22525.00
547.83	22497.00
548.29	22845.00
548.74	23219.00
549.20	23230.00
549.66	23527.00
550.12	23360.00
550.58	23342.00
551.04	23659.00
551.50	23723.00
551.96	24001.00
552.42	23588.00
552.87	23591.00
553.33	23833.00
553.79	23900.00
554.25	24171.00
554.71	24190.00
555.17	24240.00
555.63	24098.00
556.08	23728.00
556.54	23653.00
557.00	23478.00
557.46	23506.00
557.92	23855.00
558.38	23154.00
558.83	22852.00
559.29	23137.00
559.75	23077.00
560.21	23238.00
560.67	23709.00
561.13	23463.00
561.58	23067.00
562.04	23093.00
562.50	23157.00
562.96	23387.00
563.42	23127.00
563.87	22759.00
564.33	23017.00
564.79	22644.00
565.25	22295.00
565.71	21813.00
566.16	22085.00
566.62	22132.00
567.08	22158.00
567.54	22131.00
568.00	21678.00
568.45	21180.00
568.91	21126.00
569.37	21087.00
569.83	20963.00
570.28	20569.00
570.74	20130.00
571.20	20166.00
571.66	20480.00
572.11	20424.00
572.57	20389.00
573.03	20220.00
573.49	20071.00
573.94	19942.00
574.40	19865.00
574.86	19545.00
575.32	19111.00
575.77	19124.00
576.23	19007.00
576.69	19278.00
577.15	18866.00
577.60	18738.00
578.06	18472.00
578.52	18297.00
578.97	18402.00
579.43	18439.00
579.89	18361.00
580.34	18383.00
580.80	18314.00
581.26	18176.00
581.72	18160.00
582.17	18141.00
582.63	18182.00
583.09	18112.00
583.54	18013.00
584.00	18104.00
584.46	17886.00
584.91	17723.00
585.37	17427.00
585.83	17251.00
586.28	17249.00
586.74	17381.00
587.20	17342.00
587.65	17048.00
588.11	16713.00
588.57	16076.00
589.02	15322.00
589.48	15449.00
589.94	16080.00
590.39	16443.00
590.85	16387.00
591.30	16338.00
591.76	16491.00
592.22	16354.00
592.67	16427.00
593.13	16301.00
593.59	16421.00
594.04	16213.00
594.50	16148.00
594.95	16077.00
595.41	16336.00
595.87	16209.00
596.32	16469.00
596.78	16245.00
597.23	16056.00
597.69	16044.00
598.15	16068.00
598.60	15933.00
599.06	16108.00
599.51	16040.00
599.97	16049.00
600.43	15929.00
600.88	15900.00
601.34	15828.00
601.79	15669.00
602.25	15933.00
602.70	15833.00
603.16	16037.00
603.61	15986.00
604.07	15944.00
604.53	15858.00
604.98	15823.00
605.44	15725.00
605.89	15614.00
606.35	15490.00
606.80	15469.00
607.26	15390.00
607.71	15143.00
608.17	15104.00
608.62	14960.00
609.08	14967.00
609.53	14927.00
609.99	14593.00
610.44	14531.00
610.90	14667.00
611.35	14583.00
611.81	14469.00
612.26	14346.00
612.72	14275.00
613.17	14312.00
613.63	13905.00
614.08	13978.00
614.54	13888.00
614.99	13927.00
615.45	13786.00
615.90	13507.00
616.36	13295.00
616.81	13281.00
617.27	13495.00
617.72	13445.00
618.18	13504.00
618.63	13484.00
619.09	13401.00
619.54	13413.00
619.99	13330.00
620.45	13471.00
620.90	13390.00
621.36	13097.00
621.81	13155.00
622.27	13234.00
622.72	13118.00
623.18	12927.00
623.63	12911.00
624.08	12952.00
624.54	12679.00
624.99	12787.00
625.45	12738.00
625.90	12765.00
626.35	12858.00
626.81	12871.00
627.26	12696.00
627.72	12583.00
628.17	12629.00
628.62	12698.00
629.08	12745.00
629.53	12645.00
629.99	12516.00
630.44	12579.00
630.89	12812.00
631.35	12645.00
631.80	12552.00
632.26	12741.00
632.71	12727.00
633.16	12699.00
633.62	12571.00
634.07	12501.00
634.52	12531.00
634.98	12630.00
635.43	12601.00
635.88	12444.00
636.34	12469.00
636.79	12463.00
637.24	12400.00
637.70	12401.00
638.15	12303.00
638.60	12123.00
639.06	12091.00
639.51	11767.00
639.96	11747.00
640.42	11697.00
640.87	11575.00
641.32	11408.00
641.78	11402.00
642.23	11282.00
642.68	11214.00
643.14	11046.00
643.59	10942.00
644.04	10931.00
644.49	10848.00
644.95	10596.00
645.40	10458.00
645.85	10346.00
646.31	10215.00
646.76	10188.00
647.21	10053.00
647.66	9895.00
648.12	9899.00
648.57	9711.00
649.02	9628.00
649.47	9493.00
649.93	9764.00
650.38	9587.00
650.83	9587.00
651.28	9322.00
651.74	9451.00
652.19	9376.00
652.64	9421.00
653.09	9381.00
653.55	9263.00
654.00	9192.00
654.45	9179.00
654.90	8961.00
655.35	8767.00
655.81	8450.00
656.26	7872.00
656.71	8173.00
657.16	8444.00
657.62	8630.00
658.07	8718.00
658.52	8672.00
658.97	8483.00
659.42	8556.00
659.88	8389.00
660.33	8253.00
660.78	8207.00
661.23	8108.00
661.68	8051.00
662.13	8001.00
662.59	7817.00
663.04	7748.00
663.49	7625.00
663.94	7617.00
664.39	7505.00
664.84	7463.00
665.30	7463.00
665.75	7271.00
666.20	7211.00
666.65	7166.00
667.10	7169.00
667.55	7079.00
668.00	6954.00
668.46	6959.00
668.91	6961.00
669.36	7029.00
669.81	6769.00
670.26	6802.00
670.71	6731.00
671.16	6706.00
671.61	6731.00
672.06	6808.00
672.52	6665.00
672.97	6622.00
673.42	6721.00
673.87	6767.00
674.32	6554.00
674.77	6606.00
675.22	6455.00
675.67	6503.00
676.12	6533.00
676.57	6420.00
677.02	6565.00
677.47	6481.00
677.93	6622.00
678.38	6492.00
678.83	6523.00
679.28	6531.00
679.73	6521.00
680.18	6548.00
680.63	6634.00
681.08	6547.00
681.53	6587.00
681.98	6665.00
682.43	6773.00
682.88	6856.00
683.33	6950.00
683.78	6955.00
684.23	7056.00
684.68	7155.00
685.13	7302.00
685.58	7361.00
686.03	7413.00
686.48	7172.00
686.93	6953.00
687.38	6941.00
687.83	7544.00
688.28	7878.00
688.73	8227.00
689.18	8419.00
689.63	8640.00
690.08	9088.00
690.53	9565.00
690.98	10024.00
691.43	10457.00
691.88	10970.00
692.33	11379.00
692.78	11963.00
693.23	12503.00
693.68	13013.00
694.13	13478.00
694.58	14119.00
695.03	15071.00
695.48	15655.00
695.93	16437.00
696.38	17308.00
696.83	18209.00
697.28	18671.00
697.72	19095.00
698.17	19954.00
698.62	20664.00
699.07	21157.00
699.52	21879.00
699.97	22516.00
700.42	23239.00
700.87	23946.00
701.32	24806.00
701.77	25115.00
702.22	25864.00
702.67	26609.00
703.11	27649.00
703.56	28497.00
704.01	29221.00
704.46	30182.00
704.91	31072.00
705.36	31494.00
705.81	31924.00
706.26	32597.00
706.70	33214.00
707.15	33891.00
707.60	34593.00
708.05	35367.00
708.50	35870.00
708.95	36301.00
709.40	37018.00
709.84	37679.00
710.29	38115.00
710.74	38313.00
711.19	38836.00
711.64	39472.00
712.09	39976.00
712.53	40329.00
712.98	40773.00
713.43	41459.00
713.88	41894.00
714.33	42018.00
714.78	42086.00
715.22	42313.00
715.67	42558.00
716.12	41989.00
716.57	40565.00
717.02	38906.00
717.46	38185.00
717.91	37808.00
718.36	36851.00
718.81	36836.00
719.26	37024.00
719.70	37485.00
720.15	38197.00
720.60	39832.00
721.05	42862.00
721.49	44879.00
721.94	45571.00
722.39	45408.00
722.84	44585.00
723.28	42789.00
723.73	42225.00
724.18	42176.00
724.63	42983.00
725.07	43272.00
725.52	43994.00
725.97	44667.00
726.42	45415.00
726.86	45803.00
727.31	45296.00
727.76	45204.00
728.21	46075.00
728.65	46187.00
729.10	46054.00
729.55	47016.00
729.99	48044.00
730.44	48353.00
730.89	48464.00
731.33	49574.00
731.78	50503.00
732.23	51890.00
732.68	52738.00
733.12	53436.00
733.57	54492.00
734.02	55113.00
734.46	55768.00
734.91	55793.00
735.36	56005.00
735.80	56272.00
736.25	56467.00
736.70	56691.00
737.14	57574.00
737.59	57656.00
738.04	57885.00
738.48	57402.00
738.93	57101.00
739.37	57852.00
739.82	58890.00
740.27	59207.00
740.71	58927.00
741.16	58820.00
741.61	58976.00
742.05	59336.00
742.50	59528.00
742.94	60023.00
743.39	60364.00
743.84	60528.00
744.28	60047.00
744.73	60430.00
745.18	60963.00
745.62	61166.00
746.07	61256.00
746.51	61145.00
746.96	61189.00
747.40	60807.00
747.85	60818.00
748.30	60662.00
748.74	60670.00
749.19	60287.00
749.63	60625.00
750.08	60795.00
750.52	60688.00
750.97	60212.00
751.42	60644.00
751.86	60535.00
752.31	60424.00
752.75	60108.00
753.20	60158.00
753.64	60208.00
754.09	60380.00
754.53	60394.00
754.98	60545.00
755.42	60005.00
755.87	60085.00
756.31	59886.00
756.76	59261.00
757.20	58906.00
757.65	58253.00
758.09	57633.00
758.54	55751.00
758.98	49879.00
759.43	39370.00
759.87	27733.00
760.32	20728.00
760.76	20320.00
761.21	25258.00
761.65	31076.00
762.10	32882.00
762.54	31408.00
762.99	29452.00
763.43	30415.00
763.88	32414.00
764.32	35154.00
764.77	38254.00
765.21	41359.00
765.66	43826.00
766.10	46332.00
766.54	48824.00
766.99	51104.00
767.43	52663.00
767.88	53958.00
768.32	55257.00
768.77	55638.00
769.21	56716.00
769.66	57280.00
770.10	58162.00
770.54	58671.00
770.99	58574.00
771.43	58480.00
771.88	58227.00
772.32	58192.00
772.76	58039.00
773.21	58052.00
773.65	57959.00
774.10	57488.00
774.54	57358.00
774.98	57839.00
775.43	58155.00
775.87	58670.00
776.31	58985.00
776.76	58860.00
777.20	58498.00
777.65	58193.00
778.09	57736.00
778.53	57517.00
778.98	57384.00
779.42	57077.00
779.86	57184.00
780.31	57288.00
780.75	57106.00
781.19	57694.00
781.64	57911.00
782.08	57947.00
782.52	57605.00
782.97	56991.00
783.41	56781.00
783.85	56125.00
784.30	56215.00
784.74	55687.00
785.18	55748.00
785.63	55750.00
786.07	55584.00
786.51	55935.00
786.95	56012.00
787.40	55641.00
787.84	55557.00
788.28	55184.00
788.73	54757.00
789.17	54067.00
789.61	53626.00
790.05	53402.00
790.50	52948.00
790.94	52841.00
791.38	52784.00
791.82	52985.00
792.27	53004.00
792.71	53156.00
793.15	53648.00
793.59	53373.00
794.04	52838.00
794.48	52536.00
794.92	51981.00
795.36	51779.00
795.81	51384.00
796.25	50822.00
796.69	51287.00
797.13	51976.00
797.57	52417.00
798.02	52644.00
798.46	52721.00
798.90	52725.00
799.34	51945.00
799.79	51373.00
800.23	50704.00
800.67	50386.00
801.11	50332.00
801.55	50112.00
801.99	49726.00
802.44	50048.00
802.88	50273.00
803.32	50765.00
803.76	50970.00
804.20	51025.00
804.64	50755.00
805.09	50805.00
805.53	50795.00
805.97	50383.00
806.41	49669.00
806.85	49266.00
807.29	48790.00
807.74	48712.00
808.18	48627.00
808.62	48651.00
809.06	48757.00
809.50	48896.00
809.94	48833.00
810.38	48765.00
810.82	48981.00
811.27	48679.00
811.71	47615.00
812.15	46565.00
812.59	45317.00
813.03	44224.00
813.47	42809.00
813.91	41810.00
814.35	41066.00
814.79	40760.00
815.23	40474.00
815.67	39677.00
816.12	40184.00
816.56	39865.00
817.00	40058.00
817.44	40634.00
817.88	40674.00
818.32	39771.00
818.76	40061.00
819.20	40025.00
819.64	40534.00
820.08	41075.00
820.52	41995.00
820.96	43035.00
821.40	42147.00
821.84	40744.00
822.28	38487.00
822.72	38257.00
823.16	38093.00
823.60	40228.00
824.04	42820.00
824.48	43471.00
824.92	43494.00
825.36	43374.00
825.80	42777.00
826.24	42489.00
826.68	41845.00
827.12	41671.00
827.56	41011.00
828.00	40867.00
828.44	41340.00
828.88	41994.00
829.32	42265.00
829.76	42315.00
830.20	43098.00
830.64	42551.00
831.08	42105.00
831.52	41703.00
831.96	41196.00
832.40	40464.00
832.84	41118.00
833.28	41185.00
833.72	42242.00
834.16	42944.00
834.60	44122.00
835.04	44669.00
835.48	45048.00
835.91	44824.00
836.35	44871.00
836.79	44401.00
837.23	44210.00
837.67	43613.00
838.11	43294.00
838.55	43381.00
838.99	43346.00
839.43	43768.00
839.87	44301.00
840.30	45096.00
840.74	45571.00
841.18	46113.00
841.62	46197.00
842.06	45992.00
842.50	46006.00
842.94	45600.00
843.38	44845.00
843.81	43832.00
844.25	43347.00
844.69	43245.00
845.13	43196.00
845.57	43315.00
846.01	43467.00
846.45	44144.00
846.88	44480.00
847.32	44959.00
847.76	45475.00
848.20	45482.00
848.64	45102.00
849.08	44168.00
849.51	44217.00
849.95	43091.00
850.39	43243.00
850.83	43557.00
851.27	43676.00
851.70	42758.00
852.14	42447.00
852.58	41825.00
853.02	40392.00
853.46	39071.00
853.89	39187.00
854.33	39065.00
854.77	40784.00
855.21	43547.00
855.65	44681.00
856.08	45062.00
856.52	45514.00
856.96	45008.00
857.40	43930.00
857.83	43345.00
858.27	42619.00
858.71	42075.00
859.15	41908.00
859.58	42032.00
860.02	42546.00
860.46	43147.00
860.89	44238.00
861.33	44160.00
861.77	44910.00
862.21	45065.00
862.64	45238.00
863.08	45157.00
863.52	44436.00
863.95	43940.00
864.39	43182.00
864.83	41337.00
865.27	39416.00
865.70	39342.00
866.14	38431.00
866.58	38603.00
867.01	40592.00
867.45	41867.00
867.89	42829.00
868.32	43851.00
868.76	44113.00
869.20	44151.00
869.63	44463.00
870.07	43649.00
870.51	42849.00
870.94	41949.00
871.38	40864.00
871.82	40131.00
872.25	40042.00
872.69	39909.00
873.13	40224.00
873.56	40602.00
874.00	41076.00
874.43	41833.00
874.87	42589.00
875.31	42984.00
875.74	43104.00
876.18	43455.00
876.61	43031.00
877.05	43003.00
877.49	42139.00
877.92	41834.00
878.36	40811.00
878.79	40256.00
879.23	39670.00
879.67	38651.00
880.10	38938.00
880.54	38850.00
880.97	39367.00
881.41	40484.00
881.84	41471.00
882.28	42188.00
882.72	43061.00
883.15	43448.00
883.59	43556.00
884.02	43306.00
884.46	42844.00
884.89	42276.00
885.33	41435.00
885.76	40200.00
886.20	39460.00
886.63	38855.00
887.07	38390.00
887.50	38768.00
887.94	38963.00
888.37	39161.00
888.81	39785.00
889.24	39903.00
889.68	40805.00
890.11	41071.00
890.55	41507.00
890.98	41849.00
891.42	41835.00
891.85	41607.00
892.29	41005.00
892.72	40060.00
893.16	38894.00
893.59	37941.00
894.03	36851.00
894.46	35408.00
894.90	34177.00
895.33	33101.00
895.77	32958.00
896.20	32612.00
896.63	32553.00
897.07	32926.00
897.50	32462.00
897.94	32782.00
898.37	34237.00
898.81	31928.00
899.24	31933.00
899.68	33719.00
900.11	32673.00
900.54	31817.00
900.98	31440.00
901.41	31044.00
901.85	31429.00
902.28	31728.00
902.71	31967.00
903.15	33191.00
903.58	34263.00
904.02	34161.00
904.45	34342.00
904.88	33992.00
905.32	34011.00
905.75	33663.00
906.18	32785.00
906.62	32726.00
907.05	32018.00
907.48	32064.00
907.92	31666.00
908.35	31800.00
908.79	31065.00
909.22	30791.00
909.65	30436.00
910.09	30465.00
910.52	29687.00
910.95	30152.00
911.38	30159.00
911.82	29029.00
912.25	29906.00
912.68	30513.00
913.12	30376.00
913.55	30311.00
913.98	31418.00
914.42	32773.00
914.85	32990.00
915.28	31397.00
915.72	31215.00
916.15	30428.00
916.58	30821.00
917.01	29955.00
917.45	28807.00
917.88	29883.00
918.31	30328.00
918.74	31363.00
919.18	31847.00
919.61	31668.00
920.04	32414.00
920.47	33040.00
920.91	33194.00
921.34	32856.00
921.77	33336.00
922.20	33812.00
922.64	33549.00
923.07	33200.00
923.50	32901.00
923.93	32473.00
924.37	31708.00
924.80	31573.00
925.23	31034.00
925.66	29927.00
926.09	28459.00
926.53	27844.00
926.96	26919.00
927.39	25561.00
927.82	24474.00
928.25	23376.00
928.69	22924.00
929.12	22389.00
929.55	21256.00
929.98	20586.00
930.41	19316.00
930.84	18297.00
931.28	17015.00
931.71	15504.00
932.14	13906.00
932.57	13444.00
933.00	12767.00
933.43	12296.00
933.86	11548.00
934.30	11029.00
934.73	12468.00
935.16	11725.00
935.59	10964.00
936.02	11776.00
936.45	11346.00
936.88	11427.00
937.31	12710.00
937.75	13082.00
938.18	14015.00
938.61	14546.00
939.04	15477.00
939.47	14867.00
939.90	13996.00
940.33	13511.00
940.76	12502.00
941.19	11879.00
941.62	11724.00
942.05	11519.00
942.48	10229.00
942.91	10419.00
943.35	11040.00
943.78	10253.00
944.21	10115.00
944.64	11202.00
945.07	11347.00
945.50	11061.00
945.93	11314.00
946.36	11914.00
946.79	12165.00
947.22	12980.00
947.65	12551.00
948.08	12089.00
948.51	13001.00
948.94	13337.00
949.37	12620.00
949.80	12050.00
950.23	12385.00
950.66	13046.00
951.09	12864.00
951.52	12377.00
951.95	12386.00
952.38	12893.00
952.81	13789.00
953.24	14421.00
953.67	14620.00
954.10	14498.00
954.53	15267.00
954.96	15055.00
955.39	15403.00
955.82	16431.00
956.25	15787.00
956.68	16078.00
957.11	16467.00
957.53	15921.00
957.96	15799.00
958.39	15451.00
958.82	14681.00
959.25	15355.00
959.68	16196.00
960.11	16325.00
960.54	16621.00
960.97	17659.00
961.40	18098.00
961.83	17839.00
962.26	18257.00
962.68	19823.00
963.11	20087.00
963.54	20239.00
963.97	20448.00
964.40	20256.00
964.83	20881.00
965.26	21027.00
965.69	20728.00
966.11	20640.00
966.54	20740.00
966.97	21612.00
967.40	21859.00
967.83	22001.00
968.26	22003.00
968.69	22203.00
969.11	22247.00
969.54	22138.00
969.97	22335.00
970.40	22725.00
970.83	22609.00
971.26	22891.00
971.68	23021.00
972.11	23073.00
972.54	23511.00
972.97	23408.00
973.40	22907.00
973.82	22903.00
974.25	23006.00
974.68	22644.00
975.11	22251.00
975.54	21835.00
975.96	21489.00
976.39	21648.00
976.82	21642.00
977.25	21453.00
977.67	21188.00
978.10	21512.00
978.53	21819.00
978.96	22420.00
979.38	22653.00
979.81	23172.00
980.24	23917.00
980.67	24266.00
981.09	24631.00
981.52	24868.00
981.95	24949.00
982.38	24809.00
982.80	25120.00
983.23	25568.00
983.66	25665.00
984.08	25199.00
984.51	25016.00
984.94	24941.00
985.37	24472.00
985.79	24056.00
986.22	23471.00
986.65	23244.00
987.07	22986.00
987.50	23072.00
987.93	23001.00
988.35	23153.00
988.78	23319.00
989.21	23251.00
989.63	23847.00
990.06	24148.00
990.49	24564.00
990.91	24937.00
991.34	25159.00
991.77	25241.00
992.19	25303.00
992.62	25179.00
993.05	24923.00
993.47	24759.00
993.90	24443.00
994.32	24117.00
994.75	23677.00
995.18	23250.00
995.60	23002.00
996.03	22514.00
996.45	22363.00
996.88	22235.00
997.31	22025.00
997.73	22086.00
998.16	22039.00
998.58	22359.00
999.01	22300.00
999.44	22776.00
999.86	23016.00
1000.29	23075.00
1000.71	23224.00
1001.14	23403.00
1001.56	23310.00
1001.99	23113.00
1002.41	22761.00
1002.84	22310.00
1003.27	21781.00
1003.69	21461.00
1004.12	20896.00
1004.54	20559.00
1004.97	20286.00
1005.39	20036.00
1005.82	19861.00
1006.24	19795.00
1006.67	19644.00
1007.09	19578.00
1007.52	19789.00
1007.94	19747.00
1008.37	19778.00
1008.79	19893.00
1009.22	19735.00
1009.64	19900.00
1010.07	20013.00
1010.49	20142.00
1010.92	20207.00
1011.34	20173.00
1011.77	20017.00
1012.19	19972.00
1012.62	19897.00
1013.04	19645.00
1013.46	19230.00
1013.89	18666.00
1014.31	18443.00
1014.74	18126.00
1015.16	17931.00
1015.59	17687.00
1016.01	17767.00
1016.44	17763.00
1016.86	18856.00
1017.28	18026.00
1017.71	18093.00
1018.13	18341.00
1018.56	18376.00
1018.98	18679.00
1019.40	18763.00
1019.83	18813.00
1020.25	18859.00
1020.68	19088.00
1021.10	19169.00
1021.52	19295.00
1021.95	19573.00
1022.37	19536.00
1022.79	19230.00
1023.22	19051.00
1023.64	18881.00
1024.07	18755.00
1024.49	18482.00
1024.91	18129.00
1025.34	17914.00
1025.76	17949.00
1026.18	17626.00
1026.61	17613.00
1027.03	17406.00
1027.45	17544.00
1027.88	17396.00
1028.30	17728.00
1028.72	17722.00
1029.15	17890.00
1029.57	17877.00
1029.99	18012.00
1030.41	17933.00
1030.84	18050.00
1031.26	17953.00
1031.68	17634.00
1032.11	17523.00
1032.53	17214.00
1032.95	17146.00
1033.37	16788.00
1033.80	16539.00
1034.22	16310.00
1034.64	16186.00
1035.06	15686.00
1035.49	15614.00
1035.91	15330.00
1036.33	15137.00
1036.75	15082.00
1037.18	14951.00
1037.60	14894.00
1038.02	14963.00
1038.44	14935.00
1038.87	14903.00
1039.29	14923.00
1039.71	14919.00
1040.13	14964.00
1040.55	15099.00
1040.98	15000.00
1041.40	14925.00
1041.82	14748.00
1042.24	14667.00
1042.66	14421.00
1043.09	14243.00
1043.51	14125.00
1043.93	13766.00
1044.35	13691.00
1044.77	13466.00
1045.20	13296.00
1045.62	12961.00
1046.04	12876.00
1046.46	12739.00
1046.88	12581.00
1047.30	12523.00
1047.72	12391.00
1048.15	12361.00
1048.57	12233.00
1048.99	12208.00
1049.41	12201.00
1049.83	12026.00
1050.25	12151.00
1050.67	12078.00
1051.09	12037.00
1051.52	11911.00
1051.94	11733.00
1052.36	11908.00
1052.78	11745.00
1053.20	11777.00
1053.62	11530.00
1054.04	11533.00
1054.46	11343.00
1054.88	11456.00
1055.30	11089.00
1055.72	11038.00
1056.14	10885.00
1056.57	10972.00
1056.99	10496.00
1057.41	10456.00
1057.83	10287.00
1058.25	10177.00
1058.67	9987.00
1059.09	9810.00
1059.51	9893.00
1059.93	9727.00
1060.35	9706.00
1060.77	9651.00
1061.19	9744.00
1061.61	9462.00
1062.03	9526.00
1062.45	9415.00
1062.87	9487.00
1063.29	9400.00
1063.71	9325.00
1064.13	9325.00
1064.55	9077.00
1064.97	9303.00
1065.39	9048.00
1065.81	9081.00
1066.23	8916.00
1066.65	8927.00
1067.07	8828.00
1067.49	8693.00
1067.91	8519.00
1068.33	8535.00
1068.75	8527.00
1069.17	8515.00
1069.59	8351.00
1070.00	8213.00
1070.42	8247.00
1070.84	8006.00
1071.26	7983.00
1071.68	7930.00
1072.10	7976.00
1072.52	7805.00
1072.94	7778.00
1073.36	7704.00
1073.78	7757.00
1074.20	7765.00
1074.62	7737.00
1075.03	7689.00
1075.45	7666.00
1075.87	7717.00
1076.29	7704.00
1076.71	7655.00
1077.13	7531.00
1077.55	7426.00
1077.97	7350.00
1078.38	7293.00
1078.80	7251.00
1079.22	7163.00
1079.64	7054.00
1080.06	6959.00
1080.48	7029.00
1080.89	6864.00
1081.31	6837.00
1081.73	6824.00
1082.15	6659.00
1082.57	6745.00
1082.99	6645.00
1083.40	6579.00
1083.82	6535.00
1084.24	6517.00
1084.66	6521.00
1085.08	6527.00
1085.49	6389.00
1085.91	6448.00
1086.33	7646.00
1086.75	6385.00
1087.17	6320.00
1087.58	6319.00
1088.00	6428.00
1088.42	6296.00
1088.84	6281.00
1089.25	6147.00
1089.67	6135.00
1090.09	6071.00
1090.51	5957.00
1090.92	5901.00
1091.34	5833.00
1091.76	5769.00
1092.18	5712.00
1092.59	5585.00
1093.01	5606.00
1093.43	5618.00
1093.84	5563.00
1094.26	5524.00
1094.68	5504.00
1095.10	5402.00
1095.51	5365.00
1095.93	5321.00
1096.35	5375.00
1096.76	5319.00
1097.18	5326.00
1097.60	5220.00
1098.01	5272.00
1098.43	5175.00
1098.85	5177.00
1099.26	5083.00
1099.68	5052.00
1100.10	4959.00
1100.51	4943.00
1100.93	4875.00
1101.35	4844.00
1101.76	4815.00
1102.18	5259.00
1102.60	4730.00
1103.01	4634.00
1103.43	4671.00
1103.84	4673.00
1104.26	4578.00
1104.68	4615.00
1105.09	4543.00
1105.51	4547.00
1105.92	4589.00
1106.34	4467.00
1106.76	4483.00
1107.17	4429.00
1107.59	4338.00
1108.00	4245.00
1108.42	4253.00
1108.83	4097.00
1109.25	4146.00
1109.67	4062.00
1110.08	4129.00
1110.50	4028.00
1110.91	4101.00
1111.33	4001.00
1111.74	3954.00
1112.16	3969.00
1112.57	3888.00
1112.99	3863.00
1113.41	3819.00
1113.82	3764.00
1114.24	3763.00
1114.65	3598.00
1115.07	3517.00
1115.48	3396.00
1115.90	2186.00
1116.31	2215.00
1116.73	2213.00
1117.14	2213.00
>>>>>End Processed Spectral Data<<<<<
