SpectraSuite Data File
++++++++++++++++++++++++++++++++++++
Date: Tue May 29 12:59:49 EEST 2018
User: CanSEE
Dark Spectrum Present: No
Reference Spectrum Present: No
Number of Sampled Component Spectra: 1
Spectrometers: MAYP11278
Integration Time (usec): 250000 (MAYP11278)
Spectra Averaged: 1 (MAYP11278)
Boxcar Smoothing: 0 (MAYP11278)
Correct for Electrical Dark: No (MAYP11278)
Strobe/Lamp Enabled: No (MAYP11278)
Correct for Detector Non-linearity: No (MAYP11278)
Correct for Stray Light: No (MAYP11278)
Number of Pixels in Processed Spectrum: 2068
>>>>>Begin Processed Spectral Data<<<<<
187.82	2321.00
188.30	2223.00
188.78	2197.00
189.26	2199.00
189.73	2963.00
190.21	3045.00
190.69	3129.00
191.17	3153.00
191.64	3203.00
192.12	3163.00
192.60	3140.00
193.07	3127.00
193.55	3144.00
194.03	3158.00
194.51	3183.00
194.98	3157.00
195.46	3172.00
195.94	3171.00
196.42	3187.00
196.89	3229.00
197.37	3157.00
197.85	3130.00
198.32	3145.00
198.80	3157.00
199.28	3176.00
199.76	3191.00
200.23	3161.00
200.71	3138.00
201.19	3163.00
201.66	3192.00
202.14	3189.00
202.62	3154.00
203.09	3190.00
203.57	3117.00
204.05	3205.00
204.53	3224.00
205.00	3171.00
205.48	3136.00
205.96	3239.00
206.43	3169.00
206.91	3184.00
207.39	3253.00
207.86	3175.00
208.34	3222.00
208.82	3171.00
209.29	3182.00
209.77	3174.00
210.25	3146.00
210.72	3175.00
211.20	3201.00
211.68	3172.00
212.15	3167.00
212.63	3241.00
213.11	3190.00
213.58	3164.00
214.06	3258.00
214.53	3205.00
215.01	3219.00
215.49	3219.00
215.96	3215.00
216.44	3182.00
216.92	3204.00
217.39	3171.00
217.87	3168.00
218.35	3206.00
218.82	3135.00
219.30	3171.00
219.77	3154.00
220.25	3196.00
220.73	3285.00
221.20	3173.00
221.68	3230.00
222.15	3136.00
222.63	3207.00
223.11	3157.00
223.58	3223.00
224.06	3199.00
224.53	3189.00
225.01	3194.00
225.49	3174.00
225.96	3142.00
226.44	3199.00
226.91	3217.00
227.39	3166.00
227.87	3193.00
228.34	3246.00
228.82	3215.00
229.29	3142.00
229.77	3184.00
230.24	3135.00
230.72	3201.00
231.20	3212.00
231.67	3175.00
232.15	3210.00
232.62	3165.00
233.10	3174.00
233.57	3208.00
234.05	3317.00
234.53	3143.00
235.00	3136.00
235.48	3188.00
235.95	3181.00
236.43	3206.00
236.90	3222.00
237.38	3203.00
237.85	3168.00
238.33	3193.00
238.80	3214.00
239.28	3181.00
239.75	3136.00
240.23	3209.00
240.71	3221.00
241.18	3184.00
241.66	3168.00
242.13	3192.00
242.61	3215.00
243.08	3134.00
243.56	3150.00
244.03	3230.00
244.51	3238.00
244.98	3184.00
245.46	3203.00
245.93	4667.00
246.41	3123.00
246.88	3193.00
247.36	3145.00
247.83	3192.00
248.31	3208.00
248.78	3135.00
249.26	3188.00
249.73	3212.00
250.21	3226.00
250.68	3256.00
251.16	3184.00
251.63	3259.00
252.10	3203.00
252.58	3154.00
253.05	3244.00
253.53	3209.00
254.00	3175.00
254.48	3220.00
254.95	3221.00
255.43	3217.00
255.90	3203.00
256.38	3225.00
256.85	3221.00
257.33	3238.00
257.80	3317.00
258.27	3207.00
258.75	3213.00
259.22	3174.00
259.70	3199.00
260.17	3268.00
260.65	3153.00
261.12	3170.00
261.59	3244.00
262.07	3179.00
262.54	3216.00
263.02	3221.00
263.49	3170.00
263.97	3235.00
264.44	3230.00
264.91	3185.00
265.39	3200.00
265.86	3242.00
266.34	3209.00
266.81	3163.00
267.28	3213.00
267.76	3191.00
268.23	3186.00
268.71	3093.00
269.18	3154.00
269.65	3166.00
270.13	3187.00
270.60	3211.00
271.08	3181.00
271.55	3207.00
272.02	3148.00
272.50	3206.00
272.97	3143.00
273.44	3203.00
273.92	3297.00
274.39	3214.00
274.87	3204.00
275.34	3164.00
275.81	3192.00
276.29	3192.00
276.76	3178.00
277.23	3066.00
277.71	3128.00
278.18	3065.00
278.65	3232.00
279.13	3092.00
279.60	3163.00
280.07	3409.00
280.55	3413.00
281.02	3489.00
281.50	3312.00
281.97	3304.00
282.44	3245.00
282.91	3237.00
283.39	3268.00
283.86	3191.00
284.33	3191.00
284.81	3244.00
285.28	3246.00
285.75	3260.00
286.23	3247.00
286.70	3183.00
287.17	3195.00
287.65	3304.00
288.12	3184.00
288.59	3249.00
289.07	3145.00
289.54	3261.00
290.01	3158.00
290.48	3209.00
290.96	3184.00
291.43	3233.00
291.90	3267.00
292.38	3174.00
292.85	3221.00
293.32	3162.00
293.79	3211.00
294.27	3225.00
294.74	3161.00
295.21	3196.00
295.69	3246.00
296.16	3289.00
296.63	3250.00
297.10	3243.00
297.58	3209.00
298.05	3255.00
298.52	3198.00
298.99	3245.00
299.47	3182.00
299.94	3209.00
300.41	3184.00
300.88	3210.00
301.36	3247.00
301.83	3245.00
302.30	3171.00
302.77	3261.00
303.25	3257.00
303.72	3190.00
304.19	3184.00
304.66	3181.00
305.13	3207.00
305.61	3236.00
306.08	3233.00
306.55	3238.00
307.02	3181.00
307.49	3210.00
307.97	3250.00
308.44	3205.00
308.91	3255.00
309.38	3230.00
309.86	3252.00
310.33	3219.00
310.80	3221.00
311.27	3214.00
311.74	3239.00
312.21	3199.00
312.69	3268.00
313.16	3192.00
313.63	3235.00
314.10	3198.00
314.57	3212.00
315.05	3192.00
315.52	3268.00
315.99	3240.00
316.46	3246.00
316.93	3229.00
317.40	3250.00
317.88	3338.00
318.35	3229.00
318.82	3219.00
319.29	3196.00
319.76	3242.00
320.23	3283.00
320.70	3250.00
321.18	3188.00
321.65	3182.00
322.12	3214.00
322.59	3275.00
323.06	3222.00
323.53	3319.00
324.00	3189.00
324.48	3273.00
324.95	3208.00
325.42	3238.00
325.89	3206.00
326.36	3235.00
326.83	3259.00
327.30	3282.00
327.77	3262.00
328.24	3228.00
328.72	3202.00
329.19	3209.00
329.66	3217.00
330.13	3221.00
330.60	3282.00
331.07	3263.00
331.54	3323.00
332.01	3227.00
332.48	3343.00
332.95	3275.00
333.43	3274.00
333.90	3289.00
334.37	3252.00
334.84	3280.00
335.31	3383.00
335.78	3220.00
336.25	3281.00
336.72	3224.00
337.19	3246.00
337.66	3219.00
338.13	3250.00
338.60	3292.00
339.07	3266.00
339.54	3212.00
340.01	3183.00
340.49	3239.00
340.96	3235.00
341.43	3274.00
341.90	3234.00
342.37	3231.00
342.84	3250.00
343.31	3251.00
343.78	3187.00
344.25	3227.00
344.72	3212.00
345.19	3260.00
345.66	3253.00
346.13	3233.00
346.60	3235.00
347.07	3303.00
347.54	3244.00
348.01	3265.00
348.48	3262.00
348.95	3209.00
349.42	3223.00
349.89	3266.00
350.36	3267.00
350.83	3193.00
351.30	3263.00
351.77	3304.00
352.24	3253.00
352.71	3242.00
353.18	3260.00
353.65	3265.00
354.12	3222.00
354.59	3279.00
355.06	3213.00
355.53	3310.00
356.00	3209.00
356.47	3329.00
356.94	3211.00
357.41	3353.00
357.88	3298.00
358.35	3206.00
358.82	3208.00
359.28	3262.00
359.75	3230.00
360.22	3281.00
360.69	3297.00
361.16	3262.00
361.63	3241.00
362.10	3277.00
362.57	3212.00
363.04	3250.00
363.51	3343.00
363.98	3252.00
364.45	3250.00
364.92	3255.00
365.39	3230.00
365.86	3202.00
366.32	3219.00
366.79	3225.00
367.26	3869.00
367.73	3271.00
368.20	3220.00
368.67	3264.00
369.14	3225.00
369.61	3259.00
370.08	3276.00
370.55	3236.00
371.02	3783.00
371.48	3260.00
371.95	3214.00
372.42	3191.00
372.89	3223.00
373.36	3248.00
373.83	3196.00
374.30	3218.00
374.77	3263.00
375.23	3208.00
375.70	3304.00
376.17	3246.00
376.64	3172.00
377.11	3194.00
377.58	3284.00
378.05	3211.00
378.51	3234.00
378.98	3254.00
379.45	3233.00
379.92	3241.00
380.39	3342.00
380.86	3228.00
381.33	3282.00
381.79	3302.00
382.26	3156.00
382.73	3250.00
383.20	3240.00
383.67	3303.00
384.14	3270.00
384.60	3419.00
385.07	3259.00
385.54	3249.00
386.01	3287.00
386.48	3339.00
386.94	3218.00
387.41	3206.00
387.88	3276.00
388.35	3230.00
388.82	3299.00
389.28	3238.00
389.75	3286.00
390.22	3281.00
390.69	3279.00
391.16	3273.00
391.62	3242.00
392.09	3274.00
392.56	3225.00
393.03	3254.00
393.50	3326.00
393.96	3239.00
394.43	3315.00
394.90	3220.00
395.37	3307.00
395.83	3468.00
396.30	3238.00
396.77	3260.00
397.24	3321.00
397.70	3242.00
398.17	3284.00
398.64	3262.00
399.11	3227.00
399.57	3334.00
400.04	3248.00
400.51	3240.00
400.98	3256.00
401.44	3313.00
401.91	3322.00
402.38	3311.00
402.84	3270.00
403.31	3365.00
403.78	3299.00
404.25	3338.00
404.71	3363.00
405.18	3337.00
405.65	3287.00
406.12	3332.00
406.58	3305.00
407.05	3383.00
407.52	3281.00
407.98	3967.00
408.45	3314.00
408.92	3278.00
409.38	3358.00
409.85	3276.00
410.32	3333.00
410.78	3273.00
411.25	3364.00
411.72	3291.00
412.18	3262.00
412.65	3328.00
413.12	3292.00
413.59	3333.00
414.05	3330.00
414.52	3362.00
414.98	3290.00
415.45	3351.00
415.92	3330.00
416.38	3328.00
416.85	3338.00
417.32	3321.00
417.78	3326.00
418.25	3335.00
418.72	3321.00
419.18	3357.00
419.65	3324.00
420.12	3379.00
420.58	3318.00
421.05	3324.00
421.51	3312.00
421.98	3303.00
422.45	3330.00
422.91	3317.00
423.38	3370.00
423.85	3313.00
424.31	3330.00
424.78	3353.00
425.24	3298.00
425.71	3398.00
426.18	3338.00
426.64	3354.00
427.11	3351.00
427.57	3311.00
428.04	3302.00
428.51	3363.00
428.97	3338.00
429.44	3287.00
429.90	3289.00
430.37	3407.00
430.83	3259.00
431.30	3323.00
431.77	3393.00
432.23	3388.00
432.70	3316.00
433.16	3296.00
433.63	3299.00
434.09	3331.00
434.56	3333.00
435.03	3303.00
435.49	3367.00
435.96	3340.00
436.42	3321.00
436.89	3365.00
437.35	3350.00
437.82	3367.00
438.28	3310.00
438.75	3303.00
439.21	3479.00
439.68	3313.00
440.14	3319.00
440.61	3349.00
441.07	3300.00
441.54	3349.00
442.00	3441.00
442.47	3333.00
442.94	3343.00
443.40	3394.00
443.87	3285.00
444.33	3373.00
444.80	3330.00
445.26	3342.00
445.73	3362.00
446.19	3359.00
446.65	3357.00
447.12	3404.00
447.58	3332.00
448.05	3315.00
448.51	3375.00
448.98	3359.00
449.44	3366.00
449.91	3346.00
450.37	3366.00
450.84	3372.00
451.30	3362.00
451.77	3425.00
452.23	3351.00
452.70	3399.00
453.16	3387.00
453.62	3366.00
454.09	3370.00
454.55	3389.00
455.02	3368.00
455.48	3398.00
455.95	3418.00
456.41	3358.00
456.88	3431.00
457.34	3345.00
457.80	3368.00
458.27	3322.00
458.73	3387.00
459.20	3373.00
459.66	3387.00
460.13	3359.00
460.59	3307.00
461.05	3407.00
461.52	3362.00
461.98	3304.00
462.45	3304.00
462.91	3357.00
463.37	3301.00
463.84	3310.00
464.30	3298.00
464.76	3254.00
465.23	3260.00
465.69	3341.00
466.16	3286.00
466.62	3275.00
467.08	3301.00
467.55	3281.00
468.01	3289.00
468.48	3284.00
468.94	3262.00
469.40	3248.00
469.87	3291.00
470.33	3267.00
470.79	3248.00
471.26	3259.00
471.72	3241.00
472.18	3250.00
472.65	3225.00
473.11	3316.00
473.57	3248.00
474.04	3237.00
474.50	3225.00
474.96	3190.00
475.43	3244.00
475.89	3280.00
476.35	3261.00
476.82	3252.00
477.28	3226.00
477.74	3284.00
478.21	3242.00
478.67	3282.00
479.13	3201.00
479.59	3299.00
480.06	3261.00
480.52	3236.00
480.98	3210.00
481.45	3226.00
481.91	3236.00
482.37	3213.00
482.84	3217.00
483.30	3156.00
483.76	3223.00
484.22	3333.00
484.69	3247.00
485.15	3214.00
485.61	3144.00
486.07	3192.00
486.54	3155.00
487.00	3248.00
487.46	3196.00
487.92	3204.00
488.39	3205.00
488.85	3227.00
489.31	3241.00
489.77	3241.00
490.24	3217.00
490.70	3248.00
491.16	3214.00
491.62	3199.00
492.09	3192.00
492.55	3278.00
493.01	3272.00
493.47	3246.00
493.94	3237.00
494.40	3254.00
494.86	3279.00
495.32	3232.00
495.78	3270.00
496.25	3298.00
496.71	3261.00
497.17	3348.00
497.63	3317.00
498.09	3247.00
498.56	3292.00
499.02	3297.00
499.48	3397.00
499.94	3318.00
500.40	3294.00
500.87	3315.00
501.33	3336.00
501.79	3370.00
502.25	3386.00
502.71	3625.00
503.17	3372.00
503.64	3410.00
504.10	3382.00
504.56	3459.00
505.02	3470.00
505.48	3469.00
505.94	3489.00
506.40	3523.00
506.87	3506.00
507.33	3508.00
507.79	3536.00
508.25	3517.00
508.71	3562.00
509.17	3585.00
509.63	3638.00
510.10	3658.00
510.56	3598.00
511.02	3734.00
511.48	3797.00
511.94	3710.00
512.40	3731.00
512.86	3790.00
513.32	3840.00
513.78	3792.00
514.25	3877.00
514.71	4425.00
515.17	3851.00
515.63	3949.00
516.09	3957.00
516.55	3935.00
517.01	4036.00
517.47	4032.00
517.93	4080.00
518.39	4214.00
518.85	4149.00
519.32	4163.00
519.78	4216.00
520.24	4261.00
520.70	4419.00
521.16	4394.00
521.62	4454.00
522.08	4468.00
522.54	4491.00
523.00	4568.00
523.46	4635.00
523.92	4706.00
524.38	4839.00
524.84	4727.00
525.30	4765.00
525.76	4801.00
526.22	4687.00
526.68	4674.00
527.14	4751.00
527.60	4808.00
528.06	4986.00
528.52	5084.00
528.98	5054.00
529.44	5035.00
529.90	5047.00
530.36	5098.00
530.82	5120.00
531.28	5137.00
531.74	5201.00
532.20	5045.00
532.66	5113.00
533.12	5180.00
533.58	5181.00
534.04	5126.00
534.50	5210.00
534.96	5248.00
535.42	5381.00
535.88	5313.00
536.34	5250.00
536.80	5232.00
537.26	5278.00
537.72	5327.00
538.18	5319.00
538.64	5361.00
539.10	5294.00
539.56	5437.00
540.02	5141.00
540.48	5238.00
540.94	5264.00
541.40	5283.00
541.86	5361.00
542.32	5366.00
542.78	5241.00
543.24	5421.00
543.69	5342.00
544.15	5456.00
544.61	5421.00
545.07	5382.00
545.53	5350.00
545.99	5465.00
546.45	5352.00
546.91	5362.00
547.37	5354.00
547.83	5311.00
548.29	5373.00
548.74	5431.00
549.20	5346.00
549.66	5534.00
550.12	5386.00
550.58	5359.00
551.04	5418.00
551.50	5472.00
551.96	5477.00
552.42	5394.00
552.87	5333.00
553.33	5442.00
553.79	5430.00
554.25	5379.00
554.71	5423.00
555.17	5431.00
555.63	5468.00
556.08	5357.00
556.54	5360.00
557.00	5222.00
557.46	5303.00
557.92	5388.00
558.38	5191.00
558.83	5135.00
559.29	5162.00
559.75	5200.00
560.21	5184.00
560.67	5181.00
561.13	5216.00
561.58	5141.00
562.04	5207.00
562.50	5149.00
562.96	5201.00
563.42	5163.00
563.87	5102.00
564.33	5104.00
564.79	5045.00
565.25	5006.00
565.71	4982.00
566.16	4986.00
566.62	4967.00
567.08	4894.00
567.54	4951.00
568.00	4914.00
568.45	4840.00
568.91	4873.00
569.37	4824.00
569.83	4772.00
570.28	4750.00
570.74	4743.00
571.20	4708.00
571.66	4753.00
572.11	4742.00
572.57	4699.00
573.03	4661.00
573.49	4621.00
573.94	4636.00
574.40	4670.00
574.86	4584.00
575.32	4512.00
575.77	4508.00
576.23	4455.00
576.69	4542.00
577.15	4507.00
577.60	4493.00
578.06	4390.00
578.52	4454.00
578.97	4381.00
579.43	4375.00
579.89	4443.00
580.34	4427.00
580.80	4384.00
581.26	4400.00
581.72	4366.00
582.17	4327.00
582.63	4318.00
583.09	4360.00
583.54	4383.00
584.00	4325.00
584.46	4322.00
584.91	4213.00
585.37	4375.00
585.83	4213.00
586.28	4219.00
586.74	4261.00
587.20	4232.00
587.65	4295.00
588.11	4140.00
588.57	4138.00
589.02	4078.00
589.48	4024.00
589.94	4103.00
590.39	4183.00
590.85	4079.00
591.30	4128.00
591.76	4154.00
592.22	4062.00
592.67	4155.00
593.13	4068.00
593.59	4110.00
594.04	4089.00
594.50	4027.00
594.95	4129.00
595.41	4050.00
595.87	4030.00
596.32	4155.00
596.78	4110.00
597.23	4130.00
597.69	4076.00
598.15	4038.00
598.60	4036.00
599.06	4100.00
599.51	4037.00
599.97	4068.00
600.43	4133.00
600.88	4082.00
601.34	4022.00
601.79	4002.00
602.25	4125.00
602.70	4020.00
603.16	4051.00
603.61	3970.00
604.07	4000.00
604.53	4037.00
604.98	3986.00
605.44	4026.00
605.89	3990.00
606.35	3942.00
606.80	3988.00
607.26	3950.00
607.71	3956.00
608.17	3947.00
608.62	3971.00
609.08	3983.00
609.53	3938.00
609.99	3899.00
610.44	3852.00
610.90	3895.00
611.35	3871.00
611.81	3907.00
612.26	3859.00
612.72	3818.00
613.17	3932.00
613.63	3772.00
614.08	3782.00
614.54	3771.00
614.99	3754.00
615.45	3791.00
615.90	3774.00
616.36	3711.00
616.81	3717.00
617.27	3757.00
617.72	3780.00
618.18	3735.00
618.63	3752.00
619.09	3773.00
619.54	3788.00
619.99	3740.00
620.45	3752.00
620.90	3795.00
621.36	3705.00
621.81	3752.00
622.27	3766.00
622.72	3764.00
623.18	3665.00
623.63	3664.00
624.08	3704.00
624.54	3597.00
624.99	3699.00
625.45	3685.00
625.90	3647.00
626.35	3637.00
626.81	3652.00
627.26	3616.00
627.72	3687.00
628.17	3666.00
628.62	3599.00
629.08	3678.00
629.53	3668.00
629.99	3645.00
630.44	3663.00
630.89	3692.00
631.35	3664.00
631.80	3639.00
632.26	3681.00
632.71	3653.00
633.16	3646.00
633.62	3592.00
634.07	3598.00
634.52	3601.00
634.98	3609.00
635.43	3599.00
635.88	3564.00
636.34	3625.00
636.79	3585.00
637.24	3564.00
637.70	3617.00
638.15	3637.00
638.60	3593.00
639.06	3539.00
639.51	3538.00
639.96	3490.00
640.42	3541.00
640.87	3589.00
641.32	3474.00
641.78	3459.00
642.23	3472.00
642.68	3444.00
643.14	3421.00
643.59	3494.00
644.04	3449.00
644.49	3408.00
644.95	3413.00
645.40	3375.00
645.85	3405.00
646.31	3431.00
646.76	3398.00
647.21	3418.00
647.66	3330.00
648.12	3371.00
648.57	3321.00
649.02	3393.00
649.47	3365.00
649.93	3487.00
650.38	3334.00
650.83	3347.00
651.28	3282.00
651.74	3315.00
652.19	3285.00
652.64	3323.00
653.09	3317.00
653.55	3331.00
654.00	3302.00
654.45	3317.00
654.90	3305.00
655.35	3261.00
655.81	3296.00
656.26	3198.00
656.71	3254.00
657.16	3279.00
657.62	3309.00
658.07	3235.00
658.52	3264.00
658.97	3223.00
659.42	3399.00
659.88	3211.00
660.33	3296.00
660.78	3227.00
661.23	3185.00
661.68	3225.00
662.13	3158.00
662.59	3186.00
663.04	3226.00
663.49	3143.00
663.94	3180.00
664.39	3170.00
664.84	3161.00
665.30	3191.00
665.75	3148.00
666.20	3170.00
666.65	3168.00
667.10	3241.00
667.55	3196.00
668.00	3091.00
668.46	3194.00
668.91	3137.00
669.36	3225.00
669.81	3103.00
670.26	3182.00
670.71	3167.00
671.16	3133.00
671.61	3195.00
672.06	3221.00
672.52	3129.00
672.97	3111.00
673.42	3216.00
673.87	3236.00
674.32	3150.00
674.77	3139.00
675.22	3062.00
675.67	3082.00
676.12	3160.00
676.57	3122.00
677.02	3122.00
677.47	3111.00
677.93	3241.00
678.38	3097.00
678.83	3107.00
679.28	3139.00
679.73	3122.00
680.18	3146.00
680.63	3117.00
681.08	3074.00
681.53	3097.00
681.98	3106.00
682.43	3158.00
682.88	3196.00
683.33	3198.00
683.78	3175.00
684.23	3206.00
684.68	3185.00
685.13	3222.00
685.58	3225.00
686.03	3200.00
686.48	3160.00
686.93	3141.00
687.38	3170.00
687.83	3224.00
688.28	3257.00
688.73	3404.00
689.18	3323.00
689.63	3234.00
690.08	3332.00
690.53	3356.00
690.98	3363.00
691.43	3420.00
691.88	3385.00
692.33	3570.00
692.78	3556.00
693.23	3615.00
693.68	3647.00
694.13	3706.00
694.58	3701.00
695.03	3989.00
695.48	3890.00
695.93	3901.00
696.38	4079.00
696.83	4054.00
697.28	4170.00
697.72	4228.00
698.17	4204.00
698.62	4306.00
699.07	4392.00
699.52	4396.00
699.97	4484.00
700.42	4544.00
700.87	4632.00
701.32	4804.00
701.77	4677.00
702.22	4799.00
702.67	4803.00
703.11	4897.00
703.56	5035.00
704.01	5077.00
704.46	5257.00
704.91	5278.00
705.36	5355.00
705.81	5391.00
706.26	5436.00
706.70	5494.00
707.15	5596.00
707.60	5609.00
708.05	5725.00
708.50	5805.00
708.95	5791.00
709.40	5910.00
709.84	5911.00
710.29	5997.00
710.74	6018.00
711.19	6178.00
711.64	6192.00
712.09	6274.00
712.53	6344.00
712.98	6460.00
713.43	6391.00
713.88	6532.00
714.33	6579.00
714.78	6566.00
715.22	6555.00
715.67	6613.00
716.12	6596.00
716.57	6436.00
717.02	6212.00
717.46	6193.00
717.91	6190.00
718.36	6153.00
718.81	6043.00
719.26	6074.00
719.70	6180.00
720.15	6229.00
720.60	6483.00
721.05	6776.00
721.49	7016.00
721.94	7204.00
722.39	7199.00
722.84	7079.00
723.28	6866.00
723.73	6885.00
724.18	6876.00
724.63	6941.00
725.07	6957.00
725.52	7104.00
725.97	7273.00
726.42	7276.00
726.86	7418.00
727.31	7252.00
727.76	7360.00
728.21	7512.00
728.65	7524.00
729.10	7546.00
729.55	7540.00
729.99	7718.00
730.44	7732.00
730.89	7865.00
731.33	7983.00
731.78	8134.00
732.23	8316.00
732.68	8363.00
733.12	8510.00
733.57	8750.00
734.02	8875.00
734.46	8950.00
734.91	8850.00
735.36	8946.00
735.80	9069.00
736.25	8997.00
736.70	9193.00
737.14	9208.00
737.59	9344.00
738.04	9238.00
738.48	9308.00
738.93	9333.00
739.37	9333.00
739.82	9502.00
740.27	9549.00
740.71	9524.00
741.16	9603.00
741.61	9535.00
742.05	9612.00
742.50	9769.00
742.94	9794.00
743.39	9838.00
743.84	9916.00
744.28	9881.00
744.73	9866.00
745.18	9989.00
745.62	10106.00
746.07	10018.00
746.51	9968.00
746.96	10077.00
747.40	9976.00
747.85	9991.00
748.30	10096.00
748.74	10013.00
749.19	10101.00
749.63	10111.00
750.08	9932.00
750.52	9958.00
750.97	9889.00
751.42	10034.00
751.86	9952.00
752.31	9984.00
752.75	10081.00
753.20	9954.00
753.64	10046.00
754.09	10044.00
754.53	10142.00
754.98	9978.00
755.42	10070.00
755.87	10051.00
756.31	10057.00
756.76	9942.00
757.20	9861.00
757.65	9818.00
758.09	9688.00
758.54	9512.00
758.98	8851.00
759.43	7450.00
759.87	6048.00
760.32	5038.00
760.76	4912.00
761.21	5387.00
761.65	6191.00
762.10	6502.00
762.54	6224.00
762.99	6019.00
763.43	6157.00
763.88	6282.00
764.32	6666.00
764.77	7115.00
765.21	7495.00
765.66	7718.00
766.10	8124.00
766.54	8484.00
766.99	8755.00
767.43	9025.00
767.88	9188.00
768.32	9408.00
768.77	9472.00
769.21	9675.00
769.66	9623.00
770.10	9741.00
770.54	9868.00
770.99	9789.00
771.43	9745.00
771.88	9741.00
772.32	9853.00
772.76	9779.00
773.21	9721.00
773.65	9706.00
774.10	9722.00
774.54	9795.00
774.98	9596.00
775.43	9884.00
775.87	9824.00
776.31	9876.00
776.76	9906.00
777.20	9849.00
777.65	9811.00
778.09	9750.00
778.53	9710.00
778.98	9720.00
779.42	9761.00
779.86	9658.00
780.31	9644.00
780.75	9743.00
781.19	9740.00
781.64	9750.00
782.08	9759.00
782.52	9740.00
782.97	9610.00
783.41	9603.00
783.85	9575.00
784.30	9500.00
784.74	9408.00
785.18	9455.00
785.63	9386.00
786.07	9413.00
786.51	9468.00
786.95	9493.00
787.40	9402.00
787.84	9403.00
788.28	9391.00
788.73	9409.00
789.17	9171.00
789.61	9121.00
790.05	9122.00
790.50	9025.00
790.94	9051.00
791.38	9096.00
791.82	9017.00
792.27	9131.00
792.71	9180.00
793.15	9297.00
793.59	9175.00
794.04	9062.00
794.48	9146.00
794.92	8953.00
795.36	8832.00
795.81	8871.00
796.25	8846.00
796.69	8846.00
797.13	8965.00
797.57	8942.00
798.02	9021.00
798.46	9051.00
798.90	9043.00
799.34	8930.00
799.79	8908.00
800.23	8696.00
800.67	8791.00
801.11	8722.00
801.55	8709.00
801.99	8581.00
802.44	8702.00
802.88	8824.00
803.32	8814.00
803.76	8800.00
804.20	8942.00
804.64	8807.00
805.09	8858.00
805.53	8879.00
805.97	8836.00
806.41	8595.00
806.85	8712.00
807.29	8516.00
807.74	8612.00
808.18	8532.00
808.62	8559.00
809.06	8436.00
809.50	8605.00
809.94	8447.00
810.38	8562.00
810.82	8526.00
811.27	8639.00
811.71	8279.00
812.15	8176.00
812.59	8061.00
813.03	7970.00
813.47	7725.00
813.91	7634.00
814.35	7488.00
814.79	7457.00
815.23	7434.00
815.67	7267.00
816.12	7385.00
816.56	7243.00
817.00	7457.00
817.44	7366.00
817.88	7371.00
818.32	7284.00
818.76	7370.00
819.20	7422.00
819.64	7410.00
820.08	7478.00
820.52	7574.00
820.96	7708.00
821.40	7705.00
821.84	7538.00
822.28	7068.00
822.72	7153.00
823.16	7041.00
823.60	7238.00
824.04	7643.00
824.48	7734.00
824.92	7767.00
825.36	7818.00
825.80	7632.00
826.24	7577.00
826.68	7611.00
827.12	7547.00
827.56	7491.00
828.00	7427.00
828.44	7488.00
828.88	7566.00
829.32	7665.00
829.76	7690.00
830.20	7699.00
830.64	7622.00
831.08	7661.00
831.52	7613.00
831.96	7497.00
832.40	7390.00
832.84	7438.00
833.28	7570.00
833.72	7742.00
834.16	7687.00
834.60	7966.00
835.04	7872.00
835.48	8065.00
835.91	7929.00
836.35	7816.00
836.79	7814.00
837.23	7875.00
837.67	7777.00
838.11	7736.00
838.55	7789.00
838.99	7787.00
839.43	7918.00
839.87	7948.00
840.30	8022.00
840.74	8123.00
841.18	8129.00
841.62	8153.00
842.06	8103.00
842.50	8130.00
842.94	8088.00
843.38	7986.00
843.81	7812.00
844.25	7700.00
844.69	7719.00
845.13	7826.00
845.57	7784.00
846.01	7939.00
846.45	7854.00
846.88	7946.00
847.32	7981.00
847.76	8032.00
848.20	8126.00
848.64	7997.00
849.08	7906.00
849.51	7809.00
849.95	7745.00
850.39	7783.00
850.83	7839.00
851.27	7737.00
851.70	7739.00
852.14	7680.00
852.58	7553.00
853.02	7361.00
853.46	7233.00
853.89	7276.00
854.33	7284.00
854.77	7479.00
855.21	7756.00
855.65	8008.00
856.08	8072.00
856.52	8059.00
856.96	7999.00
857.40	7892.00
857.83	7698.00
858.27	7747.00
858.71	7518.00
859.15	7528.00
859.58	7668.00
860.02	7701.00
860.46	7761.00
860.89	7891.00
861.33	7935.00
861.77	7968.00
862.21	8007.00
862.64	7985.00
863.08	7991.00
863.52	7958.00
863.95	7805.00
864.39	7730.00
864.83	7445.00
865.27	7264.00
865.70	7247.00
866.14	7099.00
866.58	7223.00
867.01	7446.00
867.45	7692.00
867.89	7702.00
868.32	7849.00
868.76	7972.00
869.20	7831.00
869.63	7986.00
870.07	7887.00
870.51	7626.00
870.94	7586.00
871.38	7466.00
871.82	7350.00
872.25	7317.00
872.69	7346.00
873.13	7426.00
873.56	7509.00
874.00	7583.00
874.43	7569.00
874.87	7661.00
875.31	7722.00
875.74	7651.00
876.18	7771.00
876.61	7796.00
877.05	7662.00
877.49	7557.00
877.92	7588.00
878.36	7434.00
878.79	7318.00
879.23	7304.00
879.67	7211.00
880.10	7189.00
880.54	7225.00
880.97	7296.00
881.41	7444.00
881.84	7526.00
882.28	7675.00
882.72	7646.00
883.15	7737.00
883.59	7823.00
884.02	7758.00
884.46	7688.00
884.89	7506.00
885.33	7457.00
885.76	7290.00
886.20	7186.00
886.63	7204.00
887.07	7116.00
887.50	7132.00
887.94	7217.00
888.37	7250.00
888.81	7426.00
889.24	7294.00
889.68	7438.00
890.11	7412.00
890.55	7460.00
890.98	7597.00
891.42	7540.00
891.85	7439.00
892.29	7374.00
892.72	7303.00
893.16	7095.00
893.59	6983.00
894.03	6808.00
894.46	6700.00
894.90	6600.00
895.33	6389.00
895.77	6424.00
896.20	6451.00
896.63	6411.00
897.07	6444.00
897.50	6271.00
897.94	6366.00
898.37	6558.00
898.81	6330.00
899.24	6235.00
899.68	6457.00
900.11	6342.00
900.54	6222.00
900.98	6242.00
901.41	6226.00
901.85	6224.00
902.28	6133.00
902.71	6240.00
903.15	6477.00
903.58	6513.00
904.02	6638.00
904.45	6569.00
904.88	6617.00
905.32	6463.00
905.75	6571.00
906.18	6393.00
906.62	6425.00
907.05	6269.00
907.48	6294.00
907.92	6287.00
908.35	6304.00
908.79	6166.00
909.22	6159.00
909.65	6071.00
910.09	6082.00
910.52	6138.00
910.95	6035.00
911.38	6170.00
911.82	5852.00
912.25	5997.00
912.68	6103.00
913.12	6113.00
913.55	6093.00
913.98	6163.00
914.42	6296.00
914.85	6379.00
915.28	6170.00
915.72	6240.00
916.15	6083.00
916.58	6070.00
917.01	5987.00
917.45	5886.00
917.88	5971.00
918.31	6084.00
918.74	6242.00
919.18	6380.00
919.61	6260.00
920.04	6365.00
920.47	6456.00
920.91	6433.00
921.34	6410.00
921.77	6401.00
922.20	6498.00
922.64	6543.00
923.07	6459.00
923.50	6400.00
923.93	6295.00
924.37	6347.00
924.80	6106.00
925.23	6177.00
925.66	6071.00
926.09	5833.00
926.53	5794.00
926.96	5650.00
927.39	5657.00
927.82	5354.00
928.25	5252.00
928.69	5228.00
929.12	5167.00
929.55	5029.00
929.98	4922.00
930.41	4710.00
930.84	4663.00
931.28	4460.00
931.71	4420.00
932.14	4168.00
932.57	4156.00
933.00	4007.00
933.43	4014.00
933.86	3884.00
934.30	3798.00
934.73	3939.00
935.16	3888.00
935.59	3830.00
936.02	3859.00
936.45	3882.00
936.88	3801.00
937.31	4010.00
937.75	4028.00
938.18	4067.00
938.61	4226.00
939.04	4250.00
939.47	4240.00
939.90	4196.00
940.33	4143.00
940.76	3968.00
941.19	3911.00
941.62	3852.00
942.05	3846.00
942.48	3822.00
942.91	3683.00
943.35	3737.00
943.78	3738.00
944.21	3685.00
944.64	3823.00
945.07	3841.00
945.50	3827.00
945.93	3847.00
946.36	3944.00
946.79	3940.00
947.22	4038.00
947.65	4041.00
948.08	3879.00
948.51	3936.00
948.94	4022.00
949.37	4095.00
949.80	4006.00
950.23	3958.00
950.66	3994.00
951.09	4035.00
951.52	3904.00
951.95	3943.00
952.38	3961.00
952.81	4154.00
953.24	4227.00
953.67	4160.00
954.10	4152.00
954.53	4188.00
954.96	4211.00
955.39	4295.00
955.82	4364.00
956.25	4368.00
956.68	4412.00
957.11	4341.00
957.53	4332.00
957.96	4294.00
958.39	4259.00
958.82	4149.00
959.25	4255.00
959.68	4328.00
960.11	4414.00
960.54	4407.00
960.97	4504.00
961.40	4596.00
961.83	4610.00
962.26	4477.00
962.68	4741.00
963.11	4794.00
963.54	4852.00
963.97	4834.00
964.40	4780.00
964.83	4851.00
965.26	4851.00
965.69	4841.00
966.11	4800.00
966.54	4798.00
966.97	4982.00
967.40	5056.00
967.83	5114.00
968.26	5028.00
968.69	4977.00
969.11	5078.00
969.54	5019.00
969.97	5075.00
970.40	5138.00
970.83	5096.00
971.26	5144.00
971.68	5125.00
972.11	5103.00
972.54	5174.00
972.97	5191.00
973.40	5112.00
973.82	5119.00
974.25	5042.00
974.68	5074.00
975.11	5013.00
975.54	4913.00
975.96	4938.00
976.39	4923.00
976.82	4990.00
977.25	4911.00
977.67	4966.00
978.10	4959.00
978.53	4965.00
978.96	5150.00
979.38	5117.00
979.81	5182.00
980.24	5279.00
980.67	5286.00
981.09	5297.00
981.52	5316.00
981.95	5339.00
982.38	5370.00
982.80	5352.00
983.23	5538.00
983.66	5506.00
984.08	5323.00
984.51	5367.00
984.94	5337.00
985.37	5339.00
985.79	5248.00
986.22	5203.00
986.65	5235.00
987.07	5157.00
987.50	5172.00
987.93	5189.00
988.35	5200.00
988.78	5206.00
989.21	5214.00
989.63	5275.00
990.06	5313.00
990.49	5356.00
990.91	5466.00
991.34	5417.00
991.77	5400.00
992.19	5429.00
992.62	5435.00
993.05	5387.00
993.47	5339.00
993.90	5370.00
994.32	5314.00
994.75	5280.00
995.18	5189.00
995.60	5096.00
996.03	5117.00
996.45	5154.00
996.88	5070.00
997.31	5034.00
997.73	5118.00
998.16	5011.00
998.58	5158.00
999.01	5108.00
999.44	5174.00
999.86	5239.00
1000.29	5130.00
1000.71	5207.00
1001.14	5292.00
1001.56	5208.00
1001.99	5246.00
1002.41	5116.00
1002.84	5143.00
1003.27	5000.00
1003.69	5020.00
1004.12	4927.00
1004.54	4938.00
1004.97	4876.00
1005.39	4815.00
1005.82	4799.00
1006.24	4789.00
1006.67	4771.00
1007.09	4727.00
1007.52	4806.00
1007.94	4814.00
1008.37	4920.00
1008.79	4896.00
1009.22	4844.00
1009.64	4859.00
1010.07	4917.00
1010.49	4890.00
1010.92	4826.00
1011.34	4910.00
1011.77	4901.00
1012.19	4878.00
1012.62	4856.00
1013.04	4795.00
1013.46	4785.00
1013.89	4691.00
1014.31	4666.00
1014.74	4638.00
1015.16	4585.00
1015.59	4591.00
1016.01	4572.00
1016.44	4598.00
1016.86	5552.00
1017.28	4626.00
1017.71	4643.00
1018.13	4805.00
1018.56	4746.00
1018.98	4699.00
1019.40	4723.00
1019.83	4744.00
1020.25	4793.00
1020.68	4774.00
1021.10	4762.00
1021.52	4727.00
1021.95	4906.00
1022.37	4857.00
1022.79	4869.00
1023.22	4824.00
1023.64	4694.00
1024.07	4769.00
1024.49	4724.00
1024.91	4652.00
1025.34	4584.00
1025.76	4736.00
1026.18	4632.00
1026.61	4600.00
1027.03	4589.00
1027.45	4639.00
1027.88	4557.00
1028.30	4715.00
1028.72	4661.00
1029.15	4627.00
1029.57	4654.00
1029.99	4689.00
1030.41	4625.00
1030.84	4648.00
1031.26	4662.00
1031.68	4603.00
1032.11	4623.00
1032.53	4541.00
1032.95	4529.00
1033.37	4515.00
1033.80	4540.00
1034.22	4400.00
1034.64	4502.00
1035.06	4368.00
1035.49	4346.00
1035.91	4396.00
1036.33	4335.00
1036.75	4360.00
1037.18	4329.00
1037.60	4331.00
1038.02	4346.00
1038.44	4367.00
1038.87	4280.00
1039.29	4266.00
1039.71	4290.00
1040.13	4331.00
1040.55	4365.00
1040.98	4369.00
1041.40	4351.00
1041.82	4328.00
1042.24	4301.00
1042.66	4267.00
1043.09	4204.00
1043.51	4130.00
1043.93	4151.00
1044.35	4107.00
1044.77	4156.00
1045.20	4125.00
1045.62	4084.00
1046.04	4080.00
1046.46	4095.00
1046.88	4035.00
1047.30	4063.00
1047.72	4025.00
1048.15	4031.00
1048.57	3994.00
1048.99	3986.00
1049.41	4024.00
1049.83	4038.00
1050.25	4029.00
1050.67	4008.00
1051.09	3981.00
1051.52	3996.00
1051.94	3853.00
1052.36	3976.00
1052.78	3940.00
1053.20	3931.00
1053.62	3919.00
1054.04	3903.00
1054.46	3948.00
1054.88	3937.00
1055.30	3919.00
1055.72	3912.00
1056.14	3868.00
1056.57	3949.00
1056.99	3770.00
1057.41	3786.00
1057.83	3814.00
1058.25	3785.00
1058.67	3725.00
1059.09	3745.00
1059.51	3732.00
1059.93	3703.00
1060.35	3645.00
1060.77	3740.00
1061.19	3749.00
1061.61	3682.00
1062.03	3682.00
1062.45	3691.00
1062.87	3691.00
1063.29	3716.00
1063.71	3712.00
1064.13	3636.00
1064.55	3591.00
1064.97	3666.00
1065.39	3687.00
1065.81	3623.00
1066.23	3641.00
1066.65	3595.00
1067.07	3689.00
1067.49	3598.00
1067.91	3544.00
1068.33	3513.00
1068.75	3605.00
1069.17	3632.00
1069.59	3559.00
1070.00	3534.00
1070.42	3573.00
1070.84	3475.00
1071.26	3498.00
1071.68	3458.00
1072.10	3551.00
1072.52	3526.00
1072.94	3456.00
1073.36	3440.00
1073.78	3441.00
1074.20	3483.00
1074.62	3481.00
1075.03	3461.00
1075.45	3466.00
1075.87	3514.00
1076.29	3477.00
1076.71	3519.00
1077.13	3535.00
1077.55	3369.00
1077.97	3454.00
1078.38	3429.00
1078.80	3387.00
1079.22	3443.00
1079.64	3442.00
1080.06	3393.00
1080.48	3421.00
1080.89	3376.00
1081.31	3361.00
1081.73	3376.00
1082.15	3371.00
1082.57	3389.00
1082.99	3351.00
1083.40	3360.00
1083.82	3406.00
1084.24	3302.00
1084.66	3352.00
1085.08	3352.00
1085.49	3288.00
1085.91	3313.00
1086.33	4358.00
1086.75	3348.00
1087.17	3315.00
1087.58	3320.00
1088.00	3309.00
1088.42	3364.00
1088.84	3305.00
1089.25	3237.00
1089.67	3323.00
1090.09	3283.00
1090.51	3247.00
1090.92	3310.00
1091.34	3232.00
1091.76	3266.00
1092.18	3231.00
1092.59	3234.00
1093.01	3193.00
1093.43	3222.00
1093.84	3211.00
1094.26	3185.00
1094.68	3238.00
1095.10	3191.00
1095.51	3208.00
1095.93	3188.00
1096.35	3247.00
1096.76	3223.00
1097.18	3213.00
1097.60	3188.00
1098.01	3149.00
1098.43	3145.00
1098.85	3130.00
1099.26	3177.00
1099.68	3173.00
1100.10	3144.00
1100.51	3162.00
1100.93	3150.00
1101.35	3170.00
1101.76	3142.00
1102.18	3524.00
1102.60	3152.00
1103.01	3055.00
1103.43	3142.00
1103.84	3113.00
1104.26	3083.00
1104.68	3113.00
1105.09	3049.00
1105.51	3027.00
1105.92	3146.00
1106.34	3030.00
1106.76	3087.00
1107.17	3086.00
1107.59	3067.00
1108.00	3012.00
1108.42	3037.00
1108.83	2975.00
1109.25	3023.00
1109.67	3013.00
1110.08	3031.00
1110.50	3006.00
1110.91	3046.00
1111.33	2999.00
1111.74	2998.00
1112.16	3012.00
1112.57	3042.00
1112.99	2986.00
1113.41	2983.00
1113.82	2976.00
1114.24	3011.00
1114.65	2971.00
1115.07	2933.00
1115.48	2880.00
1115.90	2187.00
1116.31	2196.00
1116.73	2201.00
1117.14	2200.00
>>>>>End Processed Spectral Data<<<<<
