SpectraSuite Data File
++++++++++++++++++++++++++++++++++++
Date: Tue May 29 13:10:41 EEST 2018
User: CanSEE
Dark Spectrum Present: No
Reference Spectrum Present: No
Number of Sampled Component Spectra: 1
Spectrometers: MAYP11278
Integration Time (usec): 230000 (MAYP11278)
Spectra Averaged: 1 (MAYP11278)
Boxcar Smoothing: 0 (MAYP11278)
Correct for Electrical Dark: No (MAYP11278)
Strobe/Lamp Enabled: No (MAYP11278)
Correct for Detector Non-linearity: No (MAYP11278)
Correct for Stray Light: No (MAYP11278)
Number of Pixels in Processed Spectrum: 2068
>>>>>Begin Processed Spectral Data<<<<<
187.82	2342.00
188.30	2236.00
188.78	2215.00
189.26	2203.00
189.73	3185.00
190.21	3306.00
190.69	3405.00
191.17	3405.00
191.64	3438.00
192.12	3391.00
192.60	3393.00
193.07	3387.00
193.55	3411.00
194.03	3404.00
194.51	3423.00
194.98	3367.00
195.46	3443.00
195.94	3406.00
196.42	3404.00
196.89	3490.00
197.37	3405.00
197.85	3427.00
198.32	3365.00
198.80	3371.00
199.28	3427.00
199.76	3463.00
200.23	3404.00
200.71	3388.00
201.19	3431.00
201.66	3389.00
202.14	3437.00
202.62	3380.00
203.09	3416.00
203.57	3401.00
204.05	3446.00
204.53	3439.00
205.00	3409.00
205.48	3388.00
205.96	3497.00
206.43	3399.00
206.91	3433.00
207.39	3540.00
207.86	3407.00
208.34	3466.00
208.82	3397.00
209.29	3468.00
209.77	3432.00
210.25	3395.00
210.72	3413.00
211.20	3491.00
211.68	3422.00
212.15	3436.00
212.63	3514.00
213.11	3437.00
213.58	3381.00
214.06	3494.00
214.53	3439.00
215.01	3467.00
215.49	3461.00
215.96	3501.00
216.44	3465.00
216.92	3460.00
217.39	3390.00
217.87	3407.00
218.35	3467.00
218.82	3399.00
219.30	3399.00
219.77	3429.00
220.25	3413.00
220.73	3541.00
221.20	3431.00
221.68	3445.00
222.15	3419.00
222.63	3467.00
223.11	3449.00
223.58	3494.00
224.06	3430.00
224.53	3401.00
225.01	3437.00
225.49	3432.00
225.96	3406.00
226.44	3427.00
226.91	3495.00
227.39	3423.00
227.87	3463.00
228.34	3499.00
228.82	3462.00
229.29	3444.00
229.77	3488.00
230.24	3418.00
230.72	3427.00
231.20	3515.00
231.67	3450.00
232.15	3425.00
232.62	3387.00
233.10	3443.00
233.57	3458.00
234.05	3544.00
234.53	3433.00
235.00	3397.00
235.48	3423.00
235.95	3453.00
236.43	3439.00
236.90	3507.00
237.38	3390.00
237.85	3423.00
238.33	3472.00
238.80	3477.00
239.28	3424.00
239.75	3417.00
240.23	3453.00
240.71	3477.00
241.18	3419.00
241.66	3433.00
242.13	3456.00
242.61	3498.00
243.08	3405.00
243.56	3447.00
244.03	3441.00
244.51	3505.00
244.98	3455.00
245.46	3522.00
245.93	5170.00
246.41	3368.00
246.88	3461.00
247.36	3437.00
247.83	3459.00
248.31	3453.00
248.78	3411.00
249.26	3463.00
249.73	3479.00
250.21	3462.00
250.68	3487.00
251.16	3466.00
251.63	3517.00
252.10	3540.00
252.58	3427.00
253.05	3490.00
253.53	3460.00
254.00	3456.00
254.48	3443.00
254.95	3419.00
255.43	3481.00
255.90	3443.00
256.38	3508.00
256.85	3535.00
257.33	3514.00
257.80	3606.00
258.27	3485.00
258.75	3469.00
259.22	3421.00
259.70	3471.00
260.17	3491.00
260.65	3462.00
261.12	3477.00
261.59	3512.00
262.07	3471.00
262.54	3497.00
263.02	3478.00
263.49	3393.00
263.97	3507.00
264.44	3445.00
264.91	3396.00
265.39	3510.00
265.86	3453.00
266.34	3499.00
266.81	3478.00
267.28	3497.00
267.76	3439.00
268.23	3480.00
268.71	3353.00
269.18	3370.00
269.65	3423.00
270.13	3445.00
270.60	3499.00
271.08	3409.00
271.55	3449.00
272.02	3415.00
272.50	3431.00
272.97	3418.00
273.44	3455.00
273.92	3547.00
274.39	3476.00
274.87	3466.00
275.34	3401.00
275.81	3395.00
276.29	3437.00
276.76	3441.00
277.23	3365.00
277.71	3342.00
278.18	3341.00
278.65	3503.00
279.13	3367.00
279.60	3419.00
280.07	3679.00
280.55	3682.00
281.02	3721.00
281.50	3471.00
281.97	3619.00
282.44	3470.00
282.91	3514.00
283.39	3534.00
283.86	3469.00
284.33	3408.00
284.81	3487.00
285.28	3507.00
285.75	3453.00
286.23	3467.00
286.70	3409.00
287.17	3518.00
287.65	3589.00
288.12	3449.00
288.59	3486.00
289.07	3409.00
289.54	3515.00
290.01	3411.00
290.48	3465.00
290.96	3436.00
291.43	3487.00
291.90	3572.00
292.38	3424.00
292.85	3502.00
293.32	3452.00
293.79	3480.00
294.27	3505.00
294.74	3439.00
295.21	3476.00
295.69	3461.00
296.16	3591.00
296.63	3558.00
297.10	3466.00
297.58	3473.00
298.05	3527.00
298.52	3437.00
298.99	3557.00
299.47	3453.00
299.94	3497.00
300.41	3441.00
300.88	3491.00
301.36	3511.00
301.83	3520.00
302.30	3443.00
302.77	3519.00
303.25	3508.00
303.72	3451.00
304.19	3457.00
304.66	3401.00
305.13	3492.00
305.61	3506.00
306.08	3515.00
306.55	3515.00
307.02	3431.00
307.49	3459.00
307.97	3491.00
308.44	3509.00
308.91	3493.00
309.38	3492.00
309.86	3517.00
310.33	3461.00
310.80	3505.00
311.27	3456.00
311.74	3492.00
312.21	3481.00
312.69	3600.00
313.16	3447.00
313.63	3459.00
314.10	3525.00
314.57	3470.00
315.05	3435.00
315.52	3525.00
315.99	3562.00
316.46	3499.00
316.93	3501.00
317.40	3508.00
317.88	3608.00
318.35	3491.00
318.82	3514.00
319.29	3455.00
319.76	3569.00
320.23	3605.00
320.70	3527.00
321.18	3500.00
321.65	3436.00
322.12	3468.00
322.59	3564.00
323.06	3495.00
323.53	3611.00
324.00	3474.00
324.48	3487.00
324.95	3486.00
325.42	3478.00
325.89	3520.00
326.36	3499.00
326.83	3501.00
327.30	3560.00
327.77	3513.00
328.24	3511.00
328.72	3519.00
329.19	3482.00
329.66	3526.00
330.13	3495.00
330.60	3562.00
331.07	3559.00
331.54	3623.00
332.01	3465.00
332.48	3635.00
332.95	3530.00
333.43	3535.00
333.90	3560.00
334.37	3536.00
334.84	3511.00
335.31	3691.00
335.78	3486.00
336.25	3481.00
336.72	3484.00
337.19	3502.00
337.66	3493.00
338.13	3562.00
338.60	3620.00
339.07	3523.00
339.54	3471.00
340.01	3486.00
340.49	3466.00
340.96	3528.00
341.43	3537.00
341.90	3470.00
342.37	3557.00
342.84	3539.00
343.31	3523.00
343.78	3471.00
344.25	3553.00
344.72	3517.00
345.19	3524.00
345.66	3556.00
346.13	3521.00
346.60	3528.00
347.07	3575.00
347.54	3447.00
348.01	3577.00
348.48	3511.00
348.95	3465.00
349.42	3511.00
349.89	3513.00
350.36	3533.00
350.83	3491.00
351.30	3518.00
351.77	3592.00
352.24	3549.00
352.71	3520.00
353.18	3542.00
353.65	3556.00
354.12	3539.00
354.59	3524.00
355.06	3501.00
355.53	3595.00
356.00	3468.00
356.47	3593.00
356.94	3482.00
357.41	3677.00
357.88	3553.00
358.35	3467.00
358.82	3480.00
359.28	3497.00
359.75	3463.00
360.22	3559.00
360.69	3606.00
361.16	3493.00
361.63	3507.00
362.10	3547.00
362.57	3516.00
363.04	3539.00
363.51	3653.00
363.98	3560.00
364.45	3479.00
364.92	3511.00
365.39	3516.00
365.86	3488.00
366.32	3561.00
366.79	3539.00
367.26	4425.00
367.73	3894.00
368.20	3483.00
368.67	3567.00
369.14	3469.00
369.61	3565.00
370.08	3549.00
370.55	3505.00
371.02	4321.00
371.48	3517.00
371.95	3505.00
372.42	3441.00
372.89	3535.00
373.36	3527.00
373.83	3456.00
374.30	3447.00
374.77	3499.00
375.23	3472.00
375.70	3573.00
376.17	3461.00
376.64	3484.00
377.11	3492.00
377.58	3501.00
378.05	3509.00
378.51	3505.00
378.98	3537.00
379.45	3509.00
379.92	3563.00
380.39	3693.00
380.86	3505.00
381.33	3605.00
381.79	3584.00
382.26	3485.00
382.73	3521.00
383.20	3517.00
383.67	3546.00
384.14	3515.00
384.60	3786.00
385.07	3527.00
385.54	3506.00
386.01	3464.00
386.48	3584.00
386.94	3493.00
387.41	3469.00
387.88	3541.00
388.35	3523.00
388.82	3571.00
389.28	3483.00
389.75	3534.00
390.22	3482.00
390.69	3551.00
391.16	3551.00
391.62	3522.00
392.09	3538.00
392.56	3531.00
393.03	3482.00
393.50	3612.00
393.96	3499.00
394.43	3582.00
394.90	3491.00
395.37	3532.00
395.83	3696.00
396.30	3482.00
396.77	3550.00
397.24	3539.00
397.70	3477.00
398.17	3544.00
398.64	3478.00
399.11	3484.00
399.57	3587.00
400.04	3504.00
400.51	3539.00
400.98	3489.00
401.44	3538.00
401.91	3542.00
402.38	3511.00
402.84	3491.00
403.31	3609.00
403.78	3505.00
404.25	3635.00
404.71	3568.00
405.18	3599.00
405.65	3484.00
406.12	3572.00
406.58	3542.00
407.05	3587.00
407.52	3566.00
407.98	4061.00
408.45	3542.00
408.92	3522.00
409.38	3641.00
409.85	3525.00
410.32	3573.00
410.78	3501.00
411.25	3608.00
411.72	3518.00
412.18	3477.00
412.65	3607.00
413.12	3548.00
413.59	3574.00
414.05	3588.00
414.52	3626.00
414.98	3539.00
415.45	3657.00
415.92	3556.00
416.38	3575.00
416.85	3626.00
417.32	3564.00
417.78	3599.00
418.25	3599.00
418.72	3543.00
419.18	3612.00
419.65	3553.00
420.12	3638.00
420.58	3555.00
421.05	3610.00
421.51	3573.00
421.98	3577.00
422.45	3567.00
422.91	3601.00
423.38	3616.00
423.85	3676.00
424.31	3634.00
424.78	3641.00
425.24	3601.00
425.71	3654.00
426.18	3607.00
426.64	3647.00
427.11	3661.00
427.57	3657.00
428.04	3578.00
428.51	3650.00
428.97	3639.00
429.44	3584.00
429.90	3613.00
430.37	3744.00
430.83	3587.00
431.30	3599.00
431.77	3681.00
432.23	3703.00
432.70	3623.00
433.16	3658.00
433.63	3677.00
434.09	3623.00
434.56	3701.00
435.03	3607.00
435.49	3680.00
435.96	3663.00
436.42	3619.00
436.89	3685.00
437.35	3645.00
437.82	3672.00
438.28	3609.00
438.75	3658.00
439.21	3805.00
439.68	3693.00
440.14	3720.00
440.61	3727.00
441.07	3656.00
441.54	3712.00
442.00	3805.00
442.47	3640.00
442.94	3722.00
443.40	3691.00
443.87	3633.00
444.33	3816.00
444.80	3712.00
445.26	3718.00
445.73	3703.00
446.19	3768.00
446.65	3714.00
447.12	3731.00
447.58	3702.00
448.05	3695.00
448.51	3749.00
448.98	3739.00
449.44	3711.00
449.91	3683.00
450.37	3747.00
450.84	3753.00
451.30	3737.00
451.77	3747.00
452.23	3692.00
452.70	3759.00
453.16	3727.00
453.62	3739.00
454.09	3697.00
454.55	3753.00
455.02	3736.00
455.48	3743.00
455.95	3784.00
456.41	3711.00
456.88	3769.00
457.34	3689.00
457.80	3712.00
458.27	3697.00
458.73	3708.00
459.20	3769.00
459.66	3732.00
460.13	3664.00
460.59	3712.00
461.05	3790.00
461.52	3746.00
461.98	3705.00
462.45	3653.00
462.91	3743.00
463.37	3717.00
463.84	3695.00
464.30	3695.00
464.76	3563.00
465.23	3616.00
465.69	3673.00
466.16	3660.00
466.62	3660.00
467.08	3666.00
467.55	3635.00
468.01	3718.00
468.48	3660.00
468.94	3610.00
469.40	3610.00
469.87	3607.00
470.33	3681.00
470.79	3599.00
471.26	3619.00
471.72	3657.00
472.18	3615.00
472.65	3621.00
473.11	3701.00
473.57	3639.00
474.04	3589.00
474.50	3617.00
474.96	3578.00
475.43	3603.00
475.89	3623.00
476.35	3654.00
476.82	3633.00
477.28	3613.00
477.74	3689.00
478.21	3652.00
478.67	3631.00
479.13	3513.00
479.59	3699.00
480.06	3633.00
480.52	3635.00
480.98	3622.00
481.45	3625.00
481.91	3621.00
482.37	3606.00
482.84	3647.00
483.30	3576.00
483.76	3604.00
484.22	3680.00
484.69	3604.00
485.15	3604.00
485.61	3480.00
486.07	3561.00
486.54	3489.00
487.00	3569.00
487.46	3487.00
487.92	3584.00
488.39	3559.00
488.85	3599.00
489.31	3619.00
489.77	3649.00
490.24	3545.00
490.70	3605.00
491.16	3552.00
491.62	3584.00
492.09	3533.00
492.55	3683.00
493.01	3610.00
493.47	3608.00
493.94	3609.00
494.40	3601.00
494.86	3633.00
495.32	3569.00
495.78	3636.00
496.25	3627.00
496.71	3683.00
497.17	3791.00
497.63	3683.00
498.09	3621.00
498.56	3671.00
499.02	3648.00
499.48	3728.00
499.94	3692.00
500.40	3641.00
500.87	3645.00
501.33	3667.00
501.79	3675.00
502.25	3692.00
502.71	4023.00
503.17	3663.00
503.64	3756.00
504.10	3723.00
504.56	3744.00
505.02	3770.00
505.48	3803.00
505.94	3805.00
506.40	3838.00
506.87	3800.00
507.33	3811.00
507.79	3851.00
508.25	3802.00
508.71	3853.00
509.17	3803.00
509.63	3841.00
510.10	3916.00
510.56	3889.00
511.02	4022.00
511.48	4031.00
511.94	3982.00
512.40	3911.00
512.86	3984.00
513.32	4028.00
513.78	3939.00
514.25	4089.00
514.71	4703.00
515.17	4007.00
515.63	4157.00
516.09	4120.00
516.55	4077.00
517.01	4193.00
517.47	4169.00
517.93	4158.00
518.39	4355.00
518.85	4248.00
519.32	4284.00
519.78	4314.00
520.24	4381.00
520.70	4451.00
521.16	4471.00
521.62	4557.00
522.08	4493.00
522.54	4535.00
523.00	4671.00
523.46	4691.00
523.92	4654.00
524.38	4898.00
524.84	4779.00
525.30	4811.00
525.76	4801.00
526.22	4721.00
526.68	4690.00
527.14	4770.00
527.60	4815.00
528.06	4999.00
528.52	5049.00
528.98	5033.00
529.44	4947.00
529.90	5122.00
530.36	5061.00
530.82	5079.00
531.28	5183.00
531.74	5165.00
532.20	5089.00
532.66	5066.00
533.12	5157.00
533.58	5207.00
534.04	5157.00
534.50	5193.00
534.96	5232.00
535.42	5355.00
535.88	5341.00
536.34	5248.00
536.80	5213.00
537.26	5319.00
537.72	5319.00
538.18	5321.00
538.64	5444.00
539.10	5346.00
539.56	5563.00
540.02	5219.00
540.48	5364.00
540.94	5267.00
541.40	5315.00
541.86	5400.00
542.32	5437.00
542.78	5383.00
543.24	5546.00
543.69	5415.00
544.15	5593.00
544.61	5506.00
545.07	5443.00
545.53	5439.00
545.99	5516.00
546.45	5487.00
546.91	5521.00
547.37	5516.00
547.83	5461.00
548.29	5505.00
548.74	5553.00
549.20	5553.00
549.66	5619.00
550.12	5561.00
550.58	5543.00
551.04	5544.00
551.50	5643.00
551.96	5695.00
552.42	5621.00
552.87	5516.00
553.33	5662.00
553.79	5596.00
554.25	5614.00
554.71	5660.00
555.17	5668.00
555.63	5697.00
556.08	5615.00
556.54	5558.00
557.00	5478.00
557.46	5498.00
557.92	5552.00
558.38	5445.00
558.83	5361.00
559.29	5435.00
559.75	5424.00
560.21	5410.00
560.67	5510.00
561.13	5503.00
561.58	5369.00
562.04	5393.00
562.50	5359.00
562.96	5368.00
563.42	5436.00
563.87	5344.00
564.33	5360.00
564.79	5395.00
565.25	5318.00
565.71	5297.00
566.16	5354.00
566.62	5229.00
567.08	5187.00
567.54	5279.00
568.00	5249.00
568.45	5099.00
568.91	5128.00
569.37	5159.00
569.83	5096.00
570.28	5004.00
570.74	4991.00
571.20	5025.00
571.66	4998.00
572.11	5048.00
572.57	4954.00
573.03	4942.00
573.49	4923.00
573.94	4955.00
574.40	5006.00
574.86	4965.00
575.32	4845.00
575.77	4893.00
576.23	4788.00
576.69	4895.00
577.15	4805.00
577.60	4793.00
578.06	4751.00
578.52	4869.00
578.97	4778.00
579.43	4717.00
579.89	4795.00
580.34	4733.00
580.80	4753.00
581.26	4761.00
581.72	4777.00
582.17	4735.00
582.63	4662.00
583.09	4707.00
583.54	4742.00
584.00	4736.00
584.46	4682.00
584.91	4633.00
585.37	4768.00
585.83	4593.00
586.28	4617.00
586.74	4609.00
587.20	4604.00
587.65	4691.00
588.11	4526.00
588.57	4498.00
589.02	4393.00
589.48	4429.00
589.94	4495.00
590.39	4533.00
590.85	4487.00
591.30	4556.00
591.76	4577.00
592.22	4469.00
592.67	4514.00
593.13	4557.00
593.59	4535.00
594.04	4518.00
594.50	4479.00
594.95	4597.00
595.41	4452.00
595.87	4450.00
596.32	4510.00
596.78	4530.00
597.23	4557.00
597.69	4515.00
598.15	4397.00
598.60	4517.00
599.06	4499.00
599.51	4429.00
599.97	4493.00
600.43	4479.00
600.88	4486.00
601.34	4477.00
601.79	4381.00
602.25	4589.00
602.70	4393.00
603.16	4412.00
603.61	4374.00
604.07	4393.00
604.53	4447.00
604.98	4437.00
605.44	4417.00
605.89	4389.00
606.35	4334.00
606.80	4439.00
607.26	4441.00
607.71	4350.00
608.17	4385.00
608.62	4377.00
609.08	4425.00
609.53	4365.00
609.99	4310.00
610.44	4309.00
610.90	4293.00
611.35	4232.00
611.81	4394.00
612.26	4282.00
612.72	4273.00
613.17	4389.00
613.63	4123.00
614.08	4185.00
614.54	4157.00
614.99	4175.00
615.45	4176.00
615.90	4170.00
616.36	4114.00
616.81	4216.00
617.27	4139.00
617.72	4194.00
618.18	4179.00
618.63	4139.00
619.09	4132.00
619.54	4185.00
619.99	4125.00
620.45	4175.00
620.90	4241.00
621.36	4131.00
621.81	4183.00
622.27	4160.00
622.72	4181.00
623.18	4108.00
623.63	4092.00
624.08	4181.00
624.54	4077.00
624.99	4090.00
625.45	4073.00
625.90	4064.00
626.35	4044.00
626.81	4084.00
627.26	4067.00
627.72	4091.00
628.17	4086.00
628.62	3997.00
629.08	4068.00
629.53	4077.00
629.99	4044.00
630.44	4071.00
630.89	4085.00
631.35	4123.00
631.80	4069.00
632.26	4095.00
632.71	4023.00
633.16	4034.00
633.62	4049.00
634.07	4041.00
634.52	4046.00
634.98	4064.00
635.43	4044.00
635.88	3974.00
636.34	4052.00
636.79	4022.00
637.24	4013.00
637.70	4059.00
638.15	4065.00
638.60	3971.00
639.06	3972.00
639.51	3941.00
639.96	3933.00
640.42	4033.00
640.87	4032.00
641.32	3915.00
641.78	3888.00
642.23	3919.00
642.68	3866.00
643.14	3897.00
643.59	3933.00
644.04	3877.00
644.49	3837.00
644.95	3791.00
645.40	3896.00
645.85	3807.00
646.31	3825.00
646.76	3842.00
647.21	3837.00
647.66	3785.00
648.12	3811.00
648.57	3736.00
649.02	3767.00
649.47	3750.00
649.93	3964.00
650.38	3691.00
650.83	3798.00
651.28	3724.00
651.74	3757.00
652.19	3682.00
652.64	3745.00
653.09	3700.00
653.55	3716.00
654.00	3801.00
654.45	3747.00
654.90	3719.00
655.35	3663.00
655.81	3649.00
656.26	3619.00
656.71	3639.00
657.16	3735.00
657.62	3741.00
658.07	3636.00
658.52	3626.00
658.97	3611.00
659.42	3891.00
659.88	3652.00
660.33	3720.00
660.78	3679.00
661.23	3592.00
661.68	3610.00
662.13	3610.00
662.59	3555.00
663.04	3616.00
663.49	3568.00
663.94	3617.00
664.39	3584.00
664.84	3535.00
665.30	3582.00
665.75	3513.00
666.20	3605.00
666.65	3578.00
667.10	3665.00
667.55	3625.00
668.00	3539.00
668.46	3572.00
668.91	3535.00
669.36	3639.00
669.81	3450.00
670.26	3523.00
670.71	3612.00
671.16	3525.00
671.61	3610.00
672.06	3595.00
672.52	3485.00
672.97	3519.00
673.42	3609.00
673.87	3653.00
674.32	3520.00
674.77	3552.00
675.22	3437.00
675.67	3459.00
676.12	3500.00
676.57	3515.00
677.02	3517.00
677.47	3493.00
677.93	3617.00
678.38	3487.00
678.83	3501.00
679.28	3546.00
679.73	3499.00
680.18	3480.00
680.63	3517.00
681.08	3476.00
681.53	3471.00
681.98	3528.00
682.43	3516.00
682.88	3591.00
683.33	3533.00
683.78	3569.00
684.23	3625.00
684.68	3553.00
685.13	3575.00
685.58	3544.00
686.03	3546.00
686.48	3532.00
686.93	3523.00
687.38	3521.00
687.83	3617.00
688.28	3543.00
688.73	3718.00
689.18	3649.00
689.63	3612.00
690.08	3711.00
690.53	3701.00
690.98	3713.00
691.43	3799.00
691.88	3756.00
692.33	3862.00
692.78	3943.00
693.23	3981.00
693.68	4027.00
694.13	4003.00
694.58	4074.00
695.03	4370.00
695.48	4217.00
695.93	4264.00
696.38	4437.00
696.83	4424.00
697.28	4447.00
697.72	4524.00
698.17	4522.00
698.62	4627.00
699.07	4741.00
699.52	4696.00
699.97	4785.00
700.42	4869.00
700.87	5005.00
701.32	5163.00
701.77	4991.00
702.22	5123.00
702.67	5066.00
703.11	5242.00
703.56	5369.00
704.01	5405.00
704.46	5432.00
704.91	5577.00
705.36	5645.00
705.81	5721.00
706.26	5673.00
706.70	5819.00
707.15	5830.00
707.60	5936.00
708.05	6003.00
708.50	6109.00
708.95	6195.00
709.40	6209.00
709.84	6248.00
710.29	6345.00
710.74	6298.00
711.19	6439.00
711.64	6511.00
712.09	6592.00
712.53	6522.00
712.98	6706.00
713.43	6734.00
713.88	6787.00
714.33	6781.00
714.78	6816.00
715.22	6793.00
715.67	6876.00
716.12	6794.00
716.57	6642.00
717.02	6445.00
717.46	6371.00
717.91	6401.00
718.36	6403.00
718.81	6271.00
719.26	6310.00
719.70	6455.00
720.15	6538.00
720.60	6681.00
721.05	7015.00
721.49	7257.00
721.94	7387.00
722.39	7305.00
722.84	7241.00
723.28	6978.00
723.73	7022.00
724.18	6949.00
724.63	7087.00
725.07	7041.00
725.52	7259.00
725.97	7302.00
726.42	7362.00
726.86	7490.00
727.31	7335.00
727.76	7499.00
728.21	7559.00
728.65	7551.00
729.10	7629.00
729.55	7575.00
729.99	7820.00
730.44	7806.00
730.89	7941.00
731.33	8011.00
731.78	8184.00
732.23	8268.00
732.68	8435.00
733.12	8677.00
733.57	8745.00
734.02	8826.00
734.46	8993.00
734.91	8959.00
735.36	8898.00
735.80	9060.00
736.25	8995.00
736.70	9065.00
737.14	9178.00
737.59	9297.00
738.04	9164.00
738.48	9138.00
738.93	9240.00
739.37	9188.00
739.82	9422.00
740.27	9553.00
740.71	9373.00
741.16	9410.00
741.61	9538.00
742.05	9533.00
742.50	9576.00
742.94	9539.00
743.39	9614.00
743.84	9644.00
744.28	9729.00
744.73	9817.00
745.18	9882.00
745.62	9956.00
746.07	9862.00
746.51	9745.00
746.96	9755.00
747.40	9797.00
747.85	9762.00
748.30	9747.00
748.74	9788.00
749.19	9745.00
749.63	9976.00
750.08	9760.00
750.52	9793.00
750.97	9707.00
751.42	9825.00
751.86	9817.00
752.31	9742.00
752.75	9807.00
753.20	9728.00
753.64	9855.00
754.09	9737.00
754.53	9892.00
754.98	9799.00
755.42	9825.00
755.87	9749.00
756.31	9851.00
756.76	9732.00
757.20	9618.00
757.65	9558.00
758.09	9482.00
758.54	9110.00
758.98	8422.00
759.43	7257.00
759.87	5806.00
760.32	5088.00
760.76	5034.00
761.21	5573.00
761.65	6282.00
762.10	6403.00
762.54	6179.00
762.99	6037.00
763.43	6128.00
763.88	6357.00
764.32	6664.00
764.77	7047.00
765.21	7389.00
765.66	7776.00
766.10	7969.00
766.54	8385.00
766.99	8617.00
767.43	8918.00
767.88	8990.00
768.32	9151.00
768.77	9231.00
769.21	9525.00
769.66	9372.00
770.10	9597.00
770.54	9666.00
770.99	9630.00
771.43	9597.00
771.88	9673.00
772.32	9592.00
772.76	9518.00
773.21	9609.00
773.65	9529.00
774.10	9402.00
774.54	9475.00
774.98	9456.00
775.43	9537.00
775.87	9706.00
776.31	9602.00
776.76	9661.00
777.20	9625.00
777.65	9535.00
778.09	9570.00
778.53	9521.00
778.98	9396.00
779.42	9678.00
779.86	9535.00
780.31	9431.00
780.75	9539.00
781.19	9525.00
781.64	9552.00
782.08	9662.00
782.52	9494.00
782.97	9381.00
783.41	9414.00
783.85	9436.00
784.30	9356.00
784.74	9282.00
785.18	9282.00
785.63	9213.00
786.07	9388.00
786.51	9329.00
786.95	9372.00
787.40	9223.00
787.84	9226.00
788.28	9154.00
788.73	9271.00
789.17	9083.00
789.61	8950.00
790.05	8943.00
790.50	8937.00
790.94	8854.00
791.38	8924.00
791.82	8869.00
792.27	8927.00
792.71	8917.00
793.15	9228.00
793.59	9016.00
794.04	8914.00
794.48	8855.00
794.92	8746.00
795.36	8699.00
795.81	8662.00
796.25	8643.00
796.69	8761.00
797.13	8731.00
797.57	8770.00
798.02	8868.00
798.46	8962.00
798.90	8857.00
799.34	8723.00
799.79	8801.00
800.23	8661.00
800.67	8527.00
801.11	8535.00
801.55	8425.00
801.99	8499.00
802.44	8578.00
802.88	8624.00
803.32	8649.00
803.76	8640.00
804.20	8756.00
804.64	8630.00
805.09	8734.00
805.53	8738.00
805.97	8691.00
806.41	8592.00
806.85	8511.00
807.29	8377.00
807.74	8382.00
808.18	8356.00
808.62	8372.00
809.06	8370.00
809.50	8395.00
809.94	8310.00
810.38	8458.00
810.82	8468.00
811.27	8520.00
811.71	8165.00
812.15	7997.00
812.59	7963.00
813.03	7885.00
813.47	7631.00
813.91	7484.00
814.35	7477.00
814.79	7344.00
815.23	7340.00
815.67	7261.00
816.12	7200.00
816.56	7216.00
817.00	7271.00
817.44	7342.00
817.88	7363.00
818.32	7273.00
818.76	7329.00
819.20	7396.00
819.64	7293.00
820.08	7405.00
820.52	7484.00
820.96	7672.00
821.40	7531.00
821.84	7423.00
822.28	7145.00
822.72	7044.00
823.16	6951.00
823.60	7274.00
824.04	7625.00
824.48	7685.00
824.92	7705.00
825.36	7745.00
825.80	7655.00
826.24	7548.00
826.68	7382.00
827.12	7461.00
827.56	7418.00
828.00	7493.00
828.44	7484.00
828.88	7519.00
829.32	7494.00
829.76	7533.00
830.20	7754.00
830.64	7577.00
831.08	7626.00
831.52	7475.00
831.96	7475.00
832.40	7354.00
832.84	7441.00
833.28	7392.00
833.72	7565.00
834.16	7627.00
834.60	7812.00
835.04	7816.00
835.48	7925.00
835.91	7841.00
836.35	7857.00
836.79	7769.00
837.23	7763.00
837.67	7649.00
838.11	7668.00
838.55	7704.00
838.99	7681.00
839.43	7833.00
839.87	7863.00
840.30	7914.00
840.74	8029.00
841.18	7884.00
841.62	7916.00
842.06	7971.00
842.50	7950.00
842.94	7910.00
843.38	7889.00
843.81	7738.00
844.25	7627.00
844.69	7637.00
845.13	7771.00
845.57	7773.00
846.01	7757.00
846.45	7710.00
846.88	7809.00
847.32	7876.00
847.76	7901.00
848.20	7882.00
848.64	7895.00
849.08	7861.00
849.51	7850.00
849.95	7783.00
850.39	7636.00
850.83	7698.00
851.27	7668.00
851.70	7612.00
852.14	7573.00
852.58	7505.00
853.02	7233.00
853.46	7228.00
853.89	7104.00
854.33	7255.00
854.77	7309.00
855.21	7671.00
855.65	7863.00
856.08	7994.00
856.52	7864.00
856.96	7916.00
857.40	7741.00
857.83	7627.00
858.27	7667.00
858.71	7398.00
859.15	7520.00
859.58	7529.00
860.02	7583.00
860.46	7722.00
860.89	7694.00
861.33	7773.00
861.77	7803.00
862.21	7975.00
862.64	7937.00
863.08	7820.00
863.52	7908.00
863.95	7697.00
864.39	7619.00
864.83	7451.00
865.27	7182.00
865.70	7164.00
866.14	7076.00
866.58	7176.00
867.01	7293.00
867.45	7424.00
867.89	7577.00
868.32	7655.00
868.76	7767.00
869.20	7800.00
869.63	7831.00
870.07	7798.00
870.51	7520.00
870.94	7450.00
871.38	7452.00
871.82	7267.00
872.25	7286.00
872.69	7279.00
873.13	7253.00
873.56	7430.00
874.00	7476.00
874.43	7403.00
874.87	7527.00
875.31	7685.00
875.74	7561.00
876.18	7664.00
876.61	7635.00
877.05	7604.00
877.49	7517.00
877.92	7472.00
878.36	7388.00
878.79	7299.00
879.23	7223.00
879.67	7091.00
880.10	7087.00
880.54	7125.00
880.97	7132.00
881.41	7367.00
881.84	7413.00
882.28	7504.00
882.72	7564.00
883.15	7567.00
883.59	7659.00
884.02	7638.00
884.46	7565.00
884.89	7513.00
885.33	7433.00
885.76	7283.00
886.20	7167.00
886.63	7129.00
887.07	7000.00
887.50	7147.00
887.94	6989.00
888.37	7114.00
888.81	7359.00
889.24	7177.00
889.68	7322.00
890.11	7307.00
890.55	7449.00
890.98	7466.00
891.42	7377.00
891.85	7265.00
892.29	7353.00
892.72	7181.00
893.16	7034.00
893.59	6970.00
894.03	6783.00
894.46	6695.00
894.90	6521.00
895.33	6315.00
895.77	6397.00
896.20	6334.00
896.63	6269.00
897.07	6306.00
897.50	6255.00
897.94	6307.00
898.37	6565.00
898.81	6237.00
899.24	6144.00
899.68	6431.00
900.11	6367.00
900.54	6276.00
900.98	6138.00
901.41	6231.00
901.85	6243.00
902.28	6239.00
902.71	6299.00
903.15	6461.00
903.58	6452.00
904.02	6565.00
904.45	6562.00
904.88	6455.00
905.32	6343.00
905.75	6517.00
906.18	6378.00
906.62	6362.00
907.05	6245.00
907.48	6281.00
907.92	6257.00
908.35	6264.00
908.79	6117.00
909.22	6064.00
909.65	6070.00
910.09	6144.00
910.52	6173.00
910.95	5984.00
911.38	6034.00
911.82	5903.00
912.25	5976.00
912.68	6028.00
913.12	6064.00
913.55	6062.00
913.98	6094.00
914.42	6248.00
914.85	6417.00
915.28	6081.00
915.72	6130.00
916.15	6072.00
916.58	6111.00
917.01	5997.00
917.45	5941.00
917.88	5991.00
918.31	6097.00
918.74	6204.00
919.18	6281.00
919.61	6319.00
920.04	6336.00
920.47	6381.00
920.91	6406.00
921.34	6339.00
921.77	6368.00
922.20	6485.00
922.64	6441.00
923.07	6461.00
923.50	6388.00
923.93	6235.00
924.37	6243.00
924.80	6153.00
925.23	6171.00
925.66	6131.00
926.09	5836.00
926.53	5783.00
926.96	5665.00
927.39	5642.00
927.82	5403.00
928.25	5163.00
928.69	5266.00
929.12	5181.00
929.55	5043.00
929.98	4969.00
930.41	4816.00
930.84	4721.00
931.28	4557.00
931.71	4547.00
932.14	4279.00
932.57	4322.00
933.00	4161.00
933.43	4194.00
933.86	4079.00
934.30	4030.00
934.73	4153.00
935.16	4048.00
935.59	3959.00
936.02	4015.00
936.45	4041.00
936.88	3989.00
937.31	4178.00
937.75	4213.00
938.18	4287.00
938.61	4365.00
939.04	4358.00
939.47	4350.00
939.90	4297.00
940.33	4336.00
940.76	4139.00
941.19	4147.00
941.62	4039.00
942.05	4023.00
942.48	3945.00
942.91	3857.00
943.35	4001.00
943.78	3923.00
944.21	3955.00
944.64	4009.00
945.07	4021.00
945.50	3969.00
945.93	4031.00
946.36	4108.00
946.79	4089.00
947.22	4169.00
947.65	4143.00
948.08	4039.00
948.51	4126.00
948.94	4199.00
949.37	4283.00
949.80	4138.00
950.23	4093.00
950.66	4207.00
951.09	4194.00
951.52	4072.00
951.95	4163.00
952.38	4173.00
952.81	4292.00
953.24	4297.00
953.67	4321.00
954.10	4258.00
954.53	4319.00
954.96	4357.00
955.39	4409.00
955.82	4471.00
956.25	4425.00
956.68	4612.00
957.11	4489.00
957.53	4497.00
957.96	4405.00
958.39	4392.00
958.82	4273.00
959.25	4393.00
959.68	4369.00
960.11	4456.00
960.54	4557.00
960.97	4610.00
961.40	4711.00
961.83	4655.00
962.26	4641.00
962.68	4873.00
963.11	4844.00
963.54	4865.00
963.97	4892.00
964.40	4851.00
964.83	4970.00
965.26	4955.00
965.69	4893.00
966.11	4933.00
966.54	4911.00
966.97	4988.00
967.40	5073.00
967.83	5239.00
968.26	5109.00
968.69	5064.00
969.11	5111.00
969.54	5019.00
969.97	5119.00
970.40	5171.00
970.83	5138.00
971.26	5117.00
971.68	5144.00
972.11	5116.00
972.54	5201.00
972.97	5240.00
973.40	5143.00
973.82	5189.00
974.25	5165.00
974.68	5064.00
975.11	5042.00
975.54	5048.00
975.96	5010.00
976.39	4989.00
976.82	5073.00
977.25	4970.00
977.67	4980.00
978.10	5039.00
978.53	5029.00
978.96	5144.00
979.38	5132.00
979.81	5152.00
980.24	5201.00
980.67	5370.00
981.09	5313.00
981.52	5410.00
981.95	5357.00
982.38	5278.00
982.80	5398.00
983.23	5484.00
983.66	5488.00
984.08	5401.00
984.51	5322.00
984.94	5348.00
985.37	5344.00
985.79	5278.00
986.22	5259.00
986.65	5240.00
987.07	5191.00
987.50	5227.00
987.93	5179.00
988.35	5202.00
988.78	5186.00
989.21	5234.00
989.63	5293.00
990.06	5340.00
990.49	5357.00
990.91	5472.00
991.34	5357.00
991.77	5370.00
992.19	5420.00
992.62	5389.00
993.05	5392.00
993.47	5454.00
993.90	5388.00
994.32	5312.00
994.75	5278.00
995.18	5167.00
995.60	5190.00
996.03	5135.00
996.45	5177.00
996.88	5107.00
997.31	5062.00
997.73	5119.00
998.16	5048.00
998.58	5157.00
999.01	5118.00
999.44	5199.00
999.86	5221.00
1000.29	5237.00
1000.71	5231.00
1001.14	5242.00
1001.56	5170.00
1001.99	5251.00
1002.41	5187.00
1002.84	5140.00
1003.27	5088.00
1003.69	5018.00
1004.12	4990.00
1004.54	5035.00
1004.97	4935.00
1005.39	4848.00
1005.82	4912.00
1006.24	4899.00
1006.67	4860.00
1007.09	4867.00
1007.52	4931.00
1007.94	4873.00
1008.37	5055.00
1008.79	4921.00
1009.22	4931.00
1009.64	4933.00
1010.07	4915.00
1010.49	4917.00
1010.92	4938.00
1011.34	4953.00
1011.77	4980.00
1012.19	4931.00
1012.62	4946.00
1013.04	4885.00
1013.46	4957.00
1013.89	4705.00
1014.31	4815.00
1014.74	4732.00
1015.16	4617.00
1015.59	4645.00
1016.01	4703.00
1016.44	4699.00
1016.86	5517.00
1017.28	4687.00
1017.71	4660.00
1018.13	4899.00
1018.56	4813.00
1018.98	4848.00
1019.40	4837.00
1019.83	4805.00
1020.25	4845.00
1020.68	4856.00
1021.10	4898.00
1021.52	4864.00
1021.95	5044.00
1022.37	4972.00
1022.79	4895.00
1023.22	4816.00
1023.64	4869.00
1024.07	4828.00
1024.49	4816.00
1024.91	4705.00
1025.34	4681.00
1025.76	4852.00
1026.18	4704.00
1026.61	4730.00
1027.03	4716.00
1027.45	4750.00
1027.88	4672.00
1028.30	4787.00
1028.72	4754.00
1029.15	4735.00
1029.57	4737.00
1029.99	4832.00
1030.41	4720.00
1030.84	4718.00
1031.26	4781.00
1031.68	4652.00
1032.11	4707.00
1032.53	4631.00
1032.95	4609.00
1033.37	4660.00
1033.80	4640.00
1034.22	4514.00
1034.64	4703.00
1035.06	4507.00
1035.49	4503.00
1035.91	4510.00
1036.33	4408.00
1036.75	4475.00
1037.18	4530.00
1037.60	4491.00
1038.02	4447.00
1038.44	4461.00
1038.87	4445.00
1039.29	4417.00
1039.71	4493.00
1040.13	4419.00
1040.55	4601.00
1040.98	4479.00
1041.40	4505.00
1041.82	4461.00
1042.24	4415.00
1042.66	4476.00
1043.09	4359.00
1043.51	4346.00
1043.93	4319.00
1044.35	4249.00
1044.77	4301.00
1045.20	4285.00
1045.62	4209.00
1046.04	4299.00
1046.46	4234.00
1046.88	4170.00
1047.30	4268.00
1047.72	4269.00
1048.15	4245.00
1048.57	4158.00
1048.99	4119.00
1049.41	4227.00
1049.83	4218.00
1050.25	4205.00
1050.67	4195.00
1051.09	4125.00
1051.52	4181.00
1051.94	4075.00
1052.36	4140.00
1052.78	4047.00
1053.20	4124.00
1053.62	4090.00
1054.04	4120.00
1054.46	4116.00
1054.88	4155.00
1055.30	4108.00
1055.72	4115.00
1056.14	4019.00
1056.57	4214.00
1056.99	3975.00
1057.41	4031.00
1057.83	3976.00
1058.25	3972.00
1058.67	3948.00
1059.09	3909.00
1059.51	3976.00
1059.93	3931.00
1060.35	3920.00
1060.77	3983.00
1061.19	3995.00
1061.61	3933.00
1062.03	3857.00
1062.45	3834.00
1062.87	3945.00
1063.29	3924.00
1063.71	3867.00
1064.13	3841.00
1064.55	3788.00
1064.97	3907.00
1065.39	3841.00
1065.81	3808.00
1066.23	3882.00
1066.65	3849.00
1067.07	3921.00
1067.49	3800.00
1067.91	3796.00
1068.33	3764.00
1068.75	3804.00
1069.17	3823.00
1069.59	3821.00
1070.00	3737.00
1070.42	3713.00
1070.84	3765.00
1071.26	3715.00
1071.68	3679.00
1072.10	3790.00
1072.52	3766.00
1072.94	3687.00
1073.36	3696.00
1073.78	3696.00
1074.20	3709.00
1074.62	3641.00
1075.03	3686.00
1075.45	3697.00
1075.87	3738.00
1076.29	3700.00
1076.71	3709.00
1077.13	3735.00
1077.55	3638.00
1077.97	3681.00
1078.38	3652.00
1078.80	3683.00
1079.22	3660.00
1079.64	3619.00
1080.06	3650.00
1080.48	3654.00
1080.89	3590.00
1081.31	3615.00
1081.73	3582.00
1082.15	3646.00
1082.57	3630.00
1082.99	3585.00
1083.40	3599.00
1083.82	3622.00
1084.24	3555.00
1084.66	3543.00
1085.08	3606.00
1085.49	3520.00
1085.91	3597.00
1086.33	4786.00
1086.75	3567.00
1087.17	3557.00
1087.58	3559.00
1088.00	3565.00
1088.42	3589.00
1088.84	3540.00
1089.25	3487.00
1089.67	3524.00
1090.09	3512.00
1090.51	3500.00
1090.92	3592.00
1091.34	3477.00
1091.76	3504.00
1092.18	3461.00
1092.59	3449.00
1093.01	3484.00
1093.43	3435.00
1093.84	3437.00
1094.26	3471.00
1094.68	3481.00
1095.10	3432.00
1095.51	3478.00
1095.93	3421.00
1096.35	3487.00
1096.76	3470.00
1097.18	3481.00
1097.60	3409.00
1098.01	3410.00
1098.43	3385.00
1098.85	3404.00
1099.26	3392.00
1099.68	3455.00
1100.10	3372.00
1100.51	3366.00
1100.93	3408.00
1101.35	3401.00
1101.76	3419.00
1102.18	3885.00
1102.60	3463.00
1103.01	3301.00
1103.43	3378.00
1103.84	3398.00
1104.26	3348.00
1104.68	3359.00
1105.09	3287.00
1105.51	3317.00
1105.92	3416.00
1106.34	3321.00
1106.76	3333.00
1107.17	3354.00
1107.59	3344.00
1108.00	3258.00
1108.42	3309.00
1108.83	3263.00
1109.25	3251.00
1109.67	3247.00
1110.08	3285.00
1110.50	3226.00
1110.91	3246.00
1111.33	3259.00
1111.74	3261.00
1112.16	3282.00
1112.57	3320.00
1112.99	3256.00
1113.41	3277.00
1113.82	3236.00
1114.24	3278.00
1114.65	3225.00
1115.07	3176.00
1115.48	3069.00
1115.90	2186.00
1116.31	2211.00
1116.73	2215.00
1117.14	2216.00
>>>>>End Processed Spectral Data<<<<<
