SpectraSuite Data File
++++++++++++++++++++++++++++++++++++
Date: Tue May 29 13:10:33 EEST 2018
User: CanSEE
Dark Spectrum Present: No
Reference Spectrum Present: No
Number of Sampled Component Spectra: 1
Spectrometers: MAYP11278
Integration Time (usec): 230000 (MAYP11278)
Spectra Averaged: 1 (MAYP11278)
Boxcar Smoothing: 0 (MAYP11278)
Correct for Electrical Dark: No (MAYP11278)
Strobe/Lamp Enabled: No (MAYP11278)
Correct for Detector Non-linearity: No (MAYP11278)
Correct for Stray Light: No (MAYP11278)
Number of Pixels in Processed Spectrum: 2068
>>>>>Begin Processed Spectral Data<<<<<
187.82	2342.00
188.30	2232.00
188.78	2210.00
189.26	2205.00
189.73	3217.00
190.21	3292.00
190.69	3393.00
191.17	3402.00
191.64	3407.00
192.12	3410.00
192.60	3393.00
193.07	3352.00
193.55	3413.00
194.03	3383.00
194.51	3386.00
194.98	3385.00
195.46	3487.00
195.94	3361.00
196.42	3410.00
196.89	3511.00
197.37	3428.00
197.85	3338.00
198.32	3357.00
198.80	3385.00
199.28	3436.00
199.76	3433.00
200.23	3387.00
200.71	3441.00
201.19	3429.00
201.66	3474.00
202.14	3401.00
202.62	3389.00
203.09	3423.00
203.57	3395.00
204.05	3441.00
204.53	3489.00
205.00	3364.00
205.48	3404.00
205.96	3478.00
206.43	3415.00
206.91	3436.00
207.39	3484.00
207.86	3453.00
208.34	3441.00
208.82	3406.00
209.29	3466.00
209.77	3431.00
210.25	3419.00
210.72	3403.00
211.20	3455.00
211.68	3421.00
212.15	3403.00
212.63	3471.00
213.11	3443.00
213.58	3411.00
214.06	3530.00
214.53	3430.00
215.01	3480.00
215.49	3414.00
215.96	3419.00
216.44	3453.00
216.92	3469.00
217.39	3451.00
217.87	3429.00
218.35	3480.00
218.82	3407.00
219.30	3403.00
219.77	3409.00
220.25	3405.00
220.73	3545.00
221.20	3405.00
221.68	3474.00
222.15	3425.00
222.63	3466.00
223.11	3406.00
223.58	3463.00
224.06	3435.00
224.53	3435.00
225.01	3401.00
225.49	3441.00
225.96	3432.00
226.44	3437.00
226.91	3477.00
227.39	3434.00
227.87	3469.00
228.34	3470.00
228.82	3461.00
229.29	3439.00
229.77	3430.00
230.24	3439.00
230.72	3466.00
231.20	3447.00
231.67	3446.00
232.15	3419.00
232.62	3363.00
233.10	3449.00
233.57	3455.00
234.05	3568.00
234.53	3465.00
235.00	3422.00
235.48	3473.00
235.95	3472.00
236.43	3456.00
236.90	3545.00
237.38	3426.00
237.85	3472.00
238.33	3451.00
238.80	3446.00
239.28	3433.00
239.75	3413.00
240.23	3522.00
240.71	3525.00
241.18	3422.00
241.66	3419.00
242.13	3499.00
242.61	3501.00
243.08	3393.00
243.56	3405.00
244.03	3449.00
244.51	3512.00
244.98	3420.00
245.46	3479.00
245.93	5174.00
246.41	3345.00
246.88	3429.00
247.36	3423.00
247.83	3462.00
248.31	3439.00
248.78	3372.00
249.26	3447.00
249.73	3480.00
250.21	3464.00
250.68	3502.00
251.16	3458.00
251.63	3529.00
252.10	3500.00
252.58	3414.00
253.05	3532.00
253.53	3456.00
254.00	3455.00
254.48	3439.00
254.95	3471.00
255.43	3499.00
255.90	3447.00
256.38	3467.00
256.85	3486.00
257.33	3563.00
257.80	3576.00
258.27	3483.00
258.75	3439.00
259.22	3415.00
259.70	3441.00
260.17	3520.00
260.65	3434.00
261.12	3443.00
261.59	3499.00
262.07	3460.00
262.54	3473.00
263.02	3458.00
263.49	3411.00
263.97	3521.00
264.44	3486.00
264.91	3451.00
265.39	3459.00
265.86	3479.00
266.34	3485.00
266.81	3472.00
267.28	3483.00
267.76	3467.00
268.23	3477.00
268.71	3374.00
269.18	3421.00
269.65	3417.00
270.13	3451.00
270.60	3503.00
271.08	3437.00
271.55	3455.00
272.02	3391.00
272.50	3419.00
272.97	3396.00
273.44	3497.00
273.92	3657.00
274.39	3445.00
274.87	3469.00
275.34	3389.00
275.81	3431.00
276.29	3448.00
276.76	3481.00
277.23	3375.00
277.71	3339.00
278.18	3325.00
278.65	3537.00
279.13	3333.00
279.60	3431.00
280.07	3709.00
280.55	3661.00
281.02	3685.00
281.50	3551.00
281.97	3589.00
282.44	3518.00
282.91	3513.00
283.39	3519.00
283.86	3444.00
284.33	3440.00
284.81	3503.00
285.28	3486.00
285.75	3526.00
286.23	3493.00
286.70	3413.00
287.17	3487.00
287.65	3503.00
288.12	3463.00
288.59	3467.00
289.07	3394.00
289.54	3489.00
290.01	3447.00
290.48	3484.00
290.96	3457.00
291.43	3470.00
291.90	3573.00
292.38	3442.00
292.85	3501.00
293.32	3423.00
293.79	3498.00
294.27	3469.00
294.74	3445.00
295.21	3410.00
295.69	3519.00
296.16	3599.00
296.63	3527.00
297.10	3506.00
297.58	3503.00
298.05	3505.00
298.52	3430.00
298.99	3543.00
299.47	3431.00
299.94	3495.00
300.41	3417.00
300.88	3504.00
301.36	3469.00
301.83	3513.00
302.30	3422.00
302.77	3502.00
303.25	3512.00
303.72	3441.00
304.19	3468.00
304.66	3427.00
305.13	3472.00
305.61	3508.00
306.08	3456.00
306.55	3497.00
307.02	3440.00
307.49	3463.00
307.97	3473.00
308.44	3490.00
308.91	3502.00
309.38	3535.00
309.86	3462.00
310.33	3471.00
310.80	3503.00
311.27	3444.00
311.74	3504.00
312.21	3472.00
312.69	3572.00
313.16	3499.00
313.63	3463.00
314.10	3441.00
314.57	3503.00
315.05	3467.00
315.52	3559.00
315.99	3472.00
316.46	3496.00
316.93	3496.00
317.40	3497.00
317.88	3634.00
318.35	3499.00
318.82	3493.00
319.29	3480.00
319.76	3529.00
320.23	3602.00
320.70	3522.00
321.18	3466.00
321.65	3437.00
322.12	3425.00
322.59	3553.00
323.06	3492.00
323.53	3644.00
324.00	3443.00
324.48	3467.00
324.95	3516.00
325.42	3485.00
325.89	3456.00
326.36	3542.00
326.83	3540.00
327.30	3521.00
327.77	3550.00
328.24	3519.00
328.72	3529.00
329.19	3487.00
329.66	3496.00
330.13	3512.00
330.60	3559.00
331.07	3531.00
331.54	3589.00
332.01	3475.00
332.48	3591.00
332.95	3547.00
333.43	3545.00
333.90	3576.00
334.37	3540.00
334.84	3536.00
335.31	3681.00
335.78	3455.00
336.25	3504.00
336.72	3493.00
337.19	3507.00
337.66	3513.00
338.13	3558.00
338.60	3581.00
339.07	3516.00
339.54	3460.00
340.01	3479.00
340.49	3480.00
340.96	3487.00
341.43	3573.00
341.90	3491.00
342.37	3513.00
342.84	3493.00
343.31	3521.00
343.78	3521.00
344.25	3531.00
344.72	3474.00
345.19	3522.00
345.66	3541.00
346.13	3477.00
346.60	3455.00
347.07	3619.00
347.54	3479.00
348.01	3539.00
348.48	3509.00
348.95	3478.00
349.42	3567.00
349.89	3536.00
350.36	3524.00
350.83	3439.00
351.30	3517.00
351.77	3620.00
352.24	3560.00
352.71	3522.00
353.18	3496.00
353.65	3542.00
354.12	3507.00
354.59	3570.00
355.06	3536.00
355.53	3563.00
356.00	3495.00
356.47	3603.00
356.94	3495.00
357.41	3641.00
357.88	3593.00
358.35	3447.00
358.82	3449.00
359.28	3491.00
359.75	3522.00
360.22	3577.00
360.69	3553.00
361.16	3505.00
361.63	3481.00
362.10	3500.00
362.57	3542.00
363.04	3495.00
363.51	3611.00
363.98	3547.00
364.45	3491.00
364.92	3543.00
365.39	3535.00
365.86	3470.00
366.32	3541.00
366.79	3539.00
367.26	4426.00
367.73	3535.00
368.20	3479.00
368.67	3562.00
369.14	3505.00
369.61	3580.00
370.08	3543.00
370.55	3552.00
371.02	4332.00
371.48	3531.00
371.95	3488.00
372.42	3474.00
372.89	3535.00
373.36	3551.00
373.83	3487.00
374.30	3461.00
374.77	3528.00
375.23	3457.00
375.70	3552.00
376.17	3471.00
376.64	3457.00
377.11	3470.00
377.58	3518.00
378.05	3521.00
378.51	3549.00
378.98	3508.00
379.45	3526.00
379.92	3514.00
380.39	3621.00
380.86	3569.00
381.33	3555.00
381.79	3553.00
382.26	3441.00
382.73	3524.00
383.20	3485.00
383.67	3509.00
384.14	3529.00
384.60	3738.00
385.07	3492.00
385.54	3504.00
386.01	3490.00
386.48	3590.00
386.94	3489.00
387.41	3432.00
387.88	3511.00
388.35	3538.00
388.82	3577.00
389.28	3495.00
389.75	3574.00
390.22	3532.00
390.69	3541.00
391.16	3542.00
391.62	3530.00
392.09	3507.00
392.56	3532.00
393.03	3521.00
393.50	3608.00
393.96	3524.00
394.43	3542.00
394.90	3480.00
395.37	3564.00
395.83	3692.00
396.30	3459.00
396.77	3515.00
397.24	3517.00
397.70	3506.00
398.17	3514.00
398.64	3512.00
399.11	3501.00
399.57	3551.00
400.04	3475.00
400.51	3521.00
400.98	3507.00
401.44	3542.00
401.91	3534.00
402.38	3518.00
402.84	3457.00
403.31	3573.00
403.78	3519.00
404.25	3590.00
404.71	3615.00
405.18	3551.00
405.65	3521.00
406.12	3600.00
406.58	3533.00
407.05	3612.00
407.52	3529.00
407.98	4068.00
408.45	3516.00
408.92	3447.00
409.38	3609.00
409.85	3497.00
410.32	3595.00
410.78	3529.00
411.25	3617.00
411.72	3494.00
412.18	3509.00
412.65	3549.00
413.12	3523.00
413.59	3544.00
414.05	3586.00
414.52	3629.00
414.98	3570.00
415.45	3628.00
415.92	3588.00
416.38	3567.00
416.85	3641.00
417.32	3543.00
417.78	3524.00
418.25	3601.00
418.72	3544.00
419.18	3609.00
419.65	3564.00
420.12	3587.00
420.58	3568.00
421.05	3570.00
421.51	3540.00
421.98	3596.00
422.45	3560.00
422.91	3631.00
423.38	3566.00
423.85	3642.00
424.31	3589.00
424.78	3643.00
425.24	3555.00
425.71	3671.00
426.18	3571.00
426.64	3624.00
427.11	3647.00
427.57	3650.00
428.04	3564.00
428.51	3611.00
428.97	3579.00
429.44	3602.00
429.90	3599.00
430.37	3714.00
430.83	3578.00
431.30	3623.00
431.77	3664.00
432.23	3679.00
432.70	3624.00
433.16	3621.00
433.63	3638.00
434.09	3617.00
434.56	3650.00
435.03	3615.00
435.49	3677.00
435.96	3724.00
436.42	3587.00
436.89	3700.00
437.35	3648.00
437.82	3621.00
438.28	3609.00
438.75	3664.00
439.21	3800.00
439.68	3615.00
440.14	3680.00
440.61	3751.00
441.07	3613.00
441.54	3688.00
442.00	3753.00
442.47	3650.00
442.94	3683.00
443.40	3702.00
443.87	3673.00
444.33	3745.00
444.80	3702.00
445.26	3699.00
445.73	3657.00
446.19	3708.00
446.65	3691.00
447.12	3721.00
447.58	3688.00
448.05	3652.00
448.51	3710.00
448.98	3742.00
449.44	3691.00
449.91	3671.00
450.37	3688.00
450.84	3712.00
451.30	3744.00
451.77	3730.00
452.23	3669.00
452.70	3747.00
453.16	3683.00
453.62	3693.00
454.09	3727.00
454.55	3693.00
455.02	3699.00
455.48	3717.00
455.95	3745.00
456.41	3686.00
456.88	3773.00
457.34	3689.00
457.80	3699.00
458.27	3651.00
458.73	3687.00
459.20	3680.00
459.66	3736.00
460.13	3670.00
460.59	3648.00
461.05	3756.00
461.52	3687.00
461.98	3641.00
462.45	3617.00
462.91	3667.00
463.37	3707.00
463.84	3655.00
464.30	3661.00
464.76	3605.00
465.23	3612.00
465.69	3667.00
466.16	3641.00
466.62	3627.00
467.08	3644.00
467.55	3594.00
468.01	3615.00
468.48	3659.00
468.94	3617.00
469.40	3560.00
469.87	3604.00
470.33	3579.00
470.79	3636.00
471.26	3612.00
471.72	3576.00
472.18	3576.00
472.65	3574.00
473.11	3654.00
473.57	3555.00
474.04	3579.00
474.50	3575.00
474.96	3530.00
475.43	3622.00
475.89	3575.00
476.35	3601.00
476.82	3590.00
477.28	3561.00
477.74	3635.00
478.21	3589.00
478.67	3652.00
479.13	3553.00
479.59	3637.00
480.06	3623.00
480.52	3611.00
480.98	3578.00
481.45	3567.00
481.91	3583.00
482.37	3519.00
482.84	3582.00
483.30	3561.00
483.76	3560.00
484.22	3661.00
484.69	3561.00
485.15	3565.00
485.61	3508.00
486.07	3519.00
486.54	3504.00
487.00	3519.00
487.46	3497.00
487.92	3538.00
488.39	3533.00
488.85	3571.00
489.31	3565.00
489.77	3635.00
490.24	3526.00
490.70	3625.00
491.16	3524.00
491.62	3539.00
492.09	3541.00
492.55	3631.00
493.01	3602.00
493.47	3602.00
493.94	3538.00
494.40	3609.00
494.86	3581.00
495.32	3524.00
495.78	3647.00
496.25	3551.00
496.71	3617.00
497.17	3719.00
497.63	3675.00
498.09	3578.00
498.56	3633.00
499.02	3585.00
499.48	3718.00
499.94	3615.00
500.40	3571.00
500.87	3662.00
501.33	3603.00
501.79	3701.00
502.25	3644.00
502.71	3995.00
503.17	3650.00
503.64	3708.00
504.10	3681.00
504.56	3718.00
505.02	3709.00
505.48	3711.00
505.94	3731.00
506.40	3825.00
506.87	3711.00
507.33	3806.00
507.79	3785.00
508.25	3800.00
508.71	3743.00
509.17	3741.00
509.63	3812.00
510.10	3870.00
510.56	3805.00
511.02	3939.00
511.48	3943.00
511.94	3871.00
512.40	3849.00
512.86	3915.00
513.32	3953.00
513.78	3879.00
514.25	4072.00
514.71	4647.00
515.17	3963.00
515.63	4073.00
516.09	4060.00
516.55	4069.00
517.01	4143.00
517.47	4097.00
517.93	4098.00
518.39	4327.00
518.85	4246.00
519.32	4191.00
519.78	4219.00
520.24	4264.00
520.70	4381.00
521.16	4409.00
521.62	4473.00
522.08	4443.00
522.54	4471.00
523.00	4553.00
523.46	4591.00
523.92	4577.00
524.38	4727.00
524.84	4679.00
525.30	4729.00
525.76	4695.00
526.22	4651.00
526.68	4636.00
527.14	4699.00
527.60	4767.00
528.06	4858.00
528.52	4918.00
528.98	4949.00
529.44	4825.00
529.90	4988.00
530.36	5031.00
530.82	4996.00
531.28	5082.00
531.74	5003.00
532.20	5022.00
532.66	5009.00
533.12	5046.00
533.58	5099.00
534.04	5058.00
534.50	5127.00
534.96	5207.00
535.42	5226.00
535.88	5248.00
536.34	5163.00
536.80	5128.00
537.26	5236.00
537.72	5259.00
538.18	5238.00
538.64	5317.00
539.10	5311.00
539.56	5493.00
540.02	5151.00
540.48	5168.00
540.94	5235.00
541.40	5229.00
541.86	5254.00
542.32	5350.00
542.78	5267.00
543.24	5449.00
543.69	5284.00
544.15	5477.00
544.61	5365.00
545.07	5338.00
545.53	5378.00
545.99	5442.00
546.45	5418.00
546.91	5425.00
547.37	5415.00
547.83	5404.00
548.29	5474.00
548.74	5436.00
549.20	5406.00
549.66	5510.00
550.12	5439.00
550.58	5482.00
551.04	5527.00
551.50	5501.00
551.96	5645.00
552.42	5487.00
552.87	5463.00
553.33	5518.00
553.79	5515.00
554.25	5495.00
554.71	5543.00
555.17	5625.00
555.63	5596.00
556.08	5542.00
556.54	5525.00
557.00	5368.00
557.46	5475.00
557.92	5545.00
558.38	5367.00
558.83	5359.00
559.29	5323.00
559.75	5355.00
560.21	5353.00
560.67	5460.00
561.13	5437.00
561.58	5353.00
562.04	5351.00
562.50	5311.00
562.96	5389.00
563.42	5404.00
563.87	5314.00
564.33	5306.00
564.79	5319.00
565.25	5238.00
565.71	5139.00
566.16	5246.00
566.62	5181.00
567.08	5199.00
567.54	5140.00
568.00	5192.00
568.45	5080.00
568.91	5074.00
569.37	5061.00
569.83	4989.00
570.28	4984.00
570.74	4995.00
571.20	4996.00
571.66	4971.00
572.11	4996.00
572.57	4974.00
573.03	4931.00
573.49	4926.00
573.94	4896.00
574.40	4881.00
574.86	4871.00
575.32	4727.00
575.77	4789.00
576.23	4771.00
576.69	4871.00
577.15	4759.00
577.60	4757.00
578.06	4720.00
578.52	4803.00
578.97	4726.00
579.43	4700.00
579.89	4738.00
580.34	4733.00
580.80	4747.00
581.26	4703.00
581.72	4737.00
582.17	4648.00
582.63	4591.00
583.09	4645.00
583.54	4659.00
584.00	4686.00
584.46	4619.00
584.91	4560.00
585.37	4742.00
585.83	4527.00
586.28	4589.00
586.74	4542.00
587.20	4604.00
587.65	4559.00
588.11	4467.00
588.57	4474.00
589.02	4338.00
589.48	4389.00
589.94	4423.00
590.39	4445.00
590.85	4455.00
591.30	4446.00
591.76	4525.00
592.22	4493.00
592.67	4447.00
593.13	4463.00
593.59	4501.00
594.04	4450.00
594.50	4404.00
594.95	4508.00
595.41	4423.00
595.87	4389.00
596.32	4528.00
596.78	4425.00
597.23	4482.00
597.69	4455.00
598.15	4390.00
598.60	4433.00
599.06	4459.00
599.51	4380.00
599.97	4411.00
600.43	4443.00
600.88	4364.00
601.34	4447.00
601.79	4336.00
602.25	4517.00
602.70	4361.00
603.16	4416.00
603.61	4334.00
604.07	4357.00
604.53	4386.00
604.98	4339.00
605.44	4398.00
605.89	4354.00
606.35	4317.00
606.80	4368.00
607.26	4341.00
607.71	4320.00
608.17	4351.00
608.62	4268.00
609.08	4459.00
609.53	4331.00
609.99	4273.00
610.44	4274.00
610.90	4265.00
611.35	4160.00
611.81	4337.00
612.26	4271.00
612.72	4228.00
613.17	4357.00
613.63	4142.00
614.08	4152.00
614.54	4149.00
614.99	4123.00
615.45	4170.00
615.90	4144.00
616.36	4146.00
616.81	4081.00
617.27	4156.00
617.72	4165.00
618.18	4113.00
618.63	4156.00
619.09	4096.00
619.54	4189.00
619.99	4095.00
620.45	4170.00
620.90	4183.00
621.36	4103.00
621.81	4111.00
622.27	4192.00
622.72	4173.00
623.18	4018.00
623.63	4026.00
624.08	4109.00
624.54	4029.00
624.99	4041.00
625.45	4068.00
625.90	4023.00
626.35	4046.00
626.81	4095.00
627.26	4011.00
627.72	4078.00
628.17	4071.00
628.62	3984.00
629.08	4016.00
629.53	4047.00
629.99	3961.00
630.44	4066.00
630.89	4045.00
631.35	4057.00
631.80	4047.00
632.26	4110.00
632.71	4035.00
633.16	4035.00
633.62	3973.00
634.07	4033.00
634.52	3940.00
634.98	4029.00
635.43	4045.00
635.88	3926.00
636.34	3981.00
636.79	3972.00
637.24	4004.00
637.70	4018.00
638.15	4093.00
638.60	3982.00
639.06	3973.00
639.51	3955.00
639.96	3883.00
640.42	3957.00
640.87	3981.00
641.32	3887.00
641.78	3897.00
642.23	3909.00
642.68	3860.00
643.14	3845.00
643.59	3913.00
644.04	3804.00
644.49	3837.00
644.95	3841.00
645.40	3805.00
645.85	3845.00
646.31	3794.00
646.76	3783.00
647.21	3799.00
647.66	3807.00
648.12	3800.00
648.57	3729.00
649.02	3807.00
649.47	3745.00
649.93	3890.00
650.38	3711.00
650.83	3718.00
651.28	3719.00
651.74	3734.00
652.19	3704.00
652.64	3733.00
653.09	3718.00
653.55	3718.00
654.00	3732.00
654.45	3723.00
654.90	3724.00
655.35	3646.00
655.81	3649.00
656.26	3563.00
656.71	3601.00
657.16	3652.00
657.62	3675.00
658.07	3664.00
658.52	3700.00
658.97	3612.00
659.42	3863.00
659.88	3639.00
660.33	3704.00
660.78	3614.00
661.23	3599.00
661.68	3631.00
662.13	3585.00
662.59	3525.00
663.04	3643.00
663.49	3568.00
663.94	3560.00
664.39	3626.00
664.84	3562.00
665.30	3584.00
665.75	3507.00
666.20	3563.00
666.65	3557.00
667.10	3607.00
667.55	3641.00
668.00	3506.00
668.46	3538.00
668.91	3514.00
669.36	3628.00
669.81	3454.00
670.26	3518.00
670.71	3577.00
671.16	3498.00
671.61	3587.00
672.06	3631.00
672.52	3442.00
672.97	3488.00
673.42	3586.00
673.87	3655.00
674.32	3500.00
674.77	3522.00
675.22	3435.00
675.67	3455.00
676.12	3503.00
676.57	3513.00
677.02	3499.00
677.47	3447.00
677.93	3615.00
678.38	3508.00
678.83	3493.00
679.28	3530.00
679.73	3482.00
680.18	3492.00
680.63	3494.00
681.08	3429.00
681.53	3421.00
681.98	3496.00
682.43	3530.00
682.88	3537.00
683.33	3528.00
683.78	3567.00
684.23	3604.00
684.68	3565.00
685.13	3555.00
685.58	3560.00
686.03	3574.00
686.48	3534.00
686.93	3533.00
687.38	3515.00
687.83	3559.00
688.28	3617.00
688.73	3752.00
689.18	3637.00
689.63	3576.00
690.08	3627.00
690.53	3711.00
690.98	3708.00
691.43	3783.00
691.88	3781.00
692.33	3839.00
692.78	3893.00
693.23	4011.00
693.68	3999.00
694.13	4015.00
694.58	4104.00
695.03	4332.00
695.48	4228.00
695.93	4304.00
696.38	4470.00
696.83	4411.00
697.28	4431.00
697.72	4552.00
698.17	4553.00
698.62	4718.00
699.07	4743.00
699.52	4817.00
699.97	4848.00
700.42	4930.00
700.87	5009.00
701.32	5274.00
701.77	5041.00
702.22	5212.00
702.67	5261.00
703.11	5334.00
703.56	5489.00
704.01	5510.00
704.46	5653.00
704.91	5767.00
705.36	5825.00
705.81	5896.00
706.26	5869.00
706.70	6066.00
707.15	6107.00
707.60	6180.00
708.05	6288.00
708.50	6351.00
708.95	6413.00
709.40	6469.00
709.84	6541.00
710.29	6565.00
710.74	6598.00
711.19	6760.00
711.64	6854.00
712.09	6911.00
712.53	6870.00
712.98	7055.00
713.43	7077.00
713.88	7128.00
714.33	7177.00
714.78	7149.00
715.22	7295.00
715.67	7343.00
716.12	7182.00
716.57	7056.00
717.02	6805.00
717.46	6820.00
717.91	6821.00
718.36	6805.00
718.81	6664.00
719.26	6749.00
719.70	6879.00
720.15	6984.00
720.60	7107.00
721.05	7492.00
721.49	7759.00
721.94	7916.00
722.39	7939.00
722.84	7819.00
723.28	7563.00
723.73	7569.00
724.18	7555.00
724.63	7732.00
725.07	7678.00
725.52	7784.00
725.97	7845.00
726.42	7959.00
726.86	8243.00
727.31	7974.00
727.76	8184.00
728.21	8273.00
728.65	8212.00
729.10	8208.00
729.55	8333.00
729.99	8533.00
730.44	8501.00
730.89	8570.00
731.33	8888.00
731.78	8982.00
732.23	9210.00
732.68	9334.00
733.12	9469.00
733.57	9558.00
734.02	9756.00
734.46	9841.00
734.91	9816.00
735.36	9929.00
735.80	10027.00
736.25	9910.00
736.70	10051.00
737.14	10135.00
737.59	10205.00
738.04	10242.00
738.48	10149.00
738.93	10217.00
739.37	10167.00
739.82	10561.00
740.27	10495.00
740.71	10481.00
741.16	10501.00
741.61	10474.00
742.05	10524.00
742.50	10693.00
742.94	10721.00
743.39	10760.00
743.84	10785.00
744.28	10765.00
744.73	10831.00
745.18	10845.00
745.62	10921.00
746.07	10986.00
746.51	10917.00
746.96	10998.00
747.40	10927.00
747.85	10844.00
748.30	10900.00
748.74	10919.00
749.19	10873.00
749.63	11141.00
750.08	10993.00
750.52	10985.00
750.97	10998.00
751.42	10939.00
751.86	10853.00
752.31	10955.00
752.75	10971.00
753.20	10931.00
753.64	10851.00
754.09	10987.00
754.53	10956.00
754.98	10960.00
755.42	10962.00
755.87	10877.00
756.31	10899.00
756.76	10875.00
757.20	10847.00
757.65	10735.00
758.09	10688.00
758.54	10360.00
758.98	9499.00
759.43	7848.00
759.87	6365.00
760.32	5407.00
760.76	5374.00
761.21	6080.00
761.65	6859.00
762.10	6936.00
762.54	6787.00
762.99	6522.00
763.43	6701.00
763.88	6941.00
764.32	7338.00
764.77	7761.00
765.21	8227.00
765.66	8535.00
766.10	8870.00
766.54	9337.00
766.99	9675.00
767.43	9886.00
767.88	10042.00
768.32	10260.00
768.77	10386.00
769.21	10624.00
769.66	10560.00
770.10	10724.00
770.54	10815.00
770.99	10662.00
771.43	10925.00
771.88	10765.00
772.32	10736.00
772.76	10704.00
773.21	10730.00
773.65	10663.00
774.10	10589.00
774.54	10599.00
774.98	10613.00
775.43	10745.00
775.87	10819.00
776.31	10774.00
776.76	10853.00
777.20	10740.00
777.65	10708.00
778.09	10688.00
778.53	10671.00
778.98	10599.00
779.42	10723.00
779.86	10707.00
780.31	10493.00
780.75	10772.00
781.19	10685.00
781.64	10702.00
782.08	10698.00
782.52	10636.00
782.97	10587.00
783.41	10602.00
783.85	10499.00
784.30	10442.00
784.74	10374.00
785.18	10376.00
785.63	10370.00
786.07	10547.00
786.51	10437.00
786.95	10545.00
787.40	10289.00
787.84	10367.00
788.28	10263.00
788.73	10290.00
789.17	10070.00
789.61	10047.00
790.05	10016.00
790.50	9951.00
790.94	9909.00
791.38	10039.00
791.82	9951.00
792.27	9972.00
792.71	10055.00
793.15	10155.00
793.59	10074.00
794.04	9968.00
794.48	9889.00
794.92	9843.00
795.36	9795.00
795.81	9754.00
796.25	9623.00
796.69	9739.00
797.13	9852.00
797.57	9898.00
798.02	9963.00
798.46	10064.00
798.90	9898.00
799.34	9869.00
799.79	9783.00
800.23	9675.00
800.67	9553.00
801.11	9538.00
801.55	9553.00
801.99	9461.00
802.44	9520.00
802.88	9710.00
803.32	9650.00
803.76	9606.00
804.20	9668.00
804.64	9635.00
805.09	9786.00
805.53	9732.00
805.97	9669.00
806.41	9501.00
806.85	9590.00
807.29	9392.00
807.74	9320.00
808.18	9366.00
808.62	9397.00
809.06	9321.00
809.50	9321.00
809.94	9291.00
810.38	9423.00
810.82	9398.00
811.27	9400.00
811.71	9093.00
812.15	8935.00
812.59	8753.00
813.03	8704.00
813.47	8529.00
813.91	8269.00
814.35	8207.00
814.79	8155.00
815.23	8163.00
815.67	7928.00
816.12	7975.00
816.56	8056.00
817.00	8147.00
817.44	8166.00
817.88	8254.00
818.32	8000.00
818.76	8067.00
819.20	8071.00
819.64	8129.00
820.08	8202.00
820.52	8319.00
820.96	8461.00
821.40	8286.00
821.84	8221.00
822.28	7812.00
822.72	7847.00
823.16	7763.00
823.60	8081.00
824.04	8427.00
824.48	8628.00
824.92	8574.00
825.36	8595.00
825.80	8400.00
826.24	8396.00
826.68	8270.00
827.12	8355.00
827.56	8267.00
828.00	8263.00
828.44	8208.00
828.88	8362.00
829.32	8442.00
829.76	8348.00
830.20	8516.00
830.64	8347.00
831.08	8491.00
831.52	8281.00
831.96	8328.00
832.40	8068.00
832.84	8206.00
833.28	8239.00
833.72	8441.00
834.16	8449.00
834.60	8762.00
835.04	8678.00
835.48	8850.00
835.91	8701.00
836.35	8763.00
836.79	8675.00
837.23	8708.00
837.67	8489.00
838.11	8532.00
838.55	8586.00
838.99	8571.00
839.43	8730.00
839.87	8853.00
840.30	8766.00
840.74	8947.00
841.18	8925.00
841.62	8927.00
842.06	8841.00
842.50	8899.00
842.94	8857.00
843.38	8753.00
843.81	8678.00
844.25	8573.00
844.69	8547.00
845.13	8541.00
845.57	8479.00
846.01	8667.00
846.45	8533.00
846.88	8707.00
847.32	8811.00
847.76	8816.00
848.20	8864.00
848.64	8738.00
849.08	8753.00
849.51	8736.00
849.95	8564.00
850.39	8504.00
850.83	8595.00
851.27	8510.00
851.70	8391.00
852.14	8464.00
852.58	8277.00
853.02	8136.00
853.46	7990.00
853.89	7991.00
854.33	8031.00
854.77	8232.00
855.21	8627.00
855.65	8920.00
856.08	8793.00
856.52	8812.00
856.96	8766.00
857.40	8653.00
857.83	8535.00
858.27	8547.00
858.71	8306.00
859.15	8323.00
859.58	8387.00
860.02	8476.00
860.46	8597.00
860.89	8635.00
861.33	8667.00
861.77	8631.00
862.21	8869.00
862.64	8770.00
863.08	8802.00
863.52	8786.00
863.95	8621.00
864.39	8567.00
864.83	8206.00
865.27	8007.00
865.70	7933.00
866.14	7831.00
866.58	7886.00
867.01	8107.00
867.45	8422.00
867.89	8445.00
868.32	8561.00
868.76	8667.00
869.20	8702.00
869.63	8767.00
870.07	8671.00
870.51	8395.00
870.94	8255.00
871.38	8199.00
871.82	8086.00
872.25	8094.00
872.69	8062.00
873.13	8142.00
873.56	8173.00
874.00	8319.00
874.43	8297.00
874.87	8429.00
875.31	8470.00
875.74	8491.00
876.18	8556.00
876.61	8485.00
877.05	8451.00
877.49	8347.00
877.92	8263.00
878.36	8271.00
878.79	8070.00
879.23	8065.00
879.67	7905.00
880.10	7848.00
880.54	7854.00
880.97	7952.00
881.41	8101.00
881.84	8293.00
882.28	8385.00
882.72	8444.00
883.15	8521.00
883.59	8446.00
884.02	8506.00
884.46	8520.00
884.89	8501.00
885.33	8299.00
885.76	8142.00
886.20	7934.00
886.63	7873.00
887.07	7779.00
887.50	7791.00
887.94	7840.00
888.37	7963.00
888.81	8206.00
889.24	7967.00
889.68	8144.00
890.11	8157.00
890.55	8326.00
890.98	8214.00
891.42	8258.00
891.85	8204.00
892.29	8094.00
892.72	7869.00
893.16	7797.00
893.59	7769.00
894.03	7443.00
894.46	7385.00
894.90	7181.00
895.33	6981.00
895.77	6985.00
896.20	6943.00
896.63	6979.00
897.07	6907.00
897.50	6833.00
897.94	7017.00
898.37	7199.00
898.81	6826.00
899.24	6797.00
899.68	7095.00
900.11	7071.00
900.54	6897.00
900.98	6744.00
901.41	6845.00
901.85	6875.00
902.28	6781.00
902.71	6891.00
903.15	7058.00
903.58	7107.00
904.02	7253.00
904.45	7189.00
904.88	7085.00
905.32	7062.00
905.75	7185.00
906.18	6945.00
906.62	7011.00
907.05	6871.00
907.48	6841.00
907.92	6807.00
908.35	6869.00
908.79	6688.00
909.22	6716.00
909.65	6762.00
910.09	6629.00
910.52	6781.00
910.95	6582.00
911.38	6616.00
911.82	6501.00
912.25	6642.00
912.68	6699.00
913.12	6665.00
913.55	6640.00
913.98	6755.00
914.42	6933.00
914.85	6951.00
915.28	6721.00
915.72	6720.00
916.15	6653.00
916.58	6821.00
917.01	6571.00
917.45	6489.00
917.88	6540.00
918.31	6598.00
918.74	6822.00
919.18	6932.00
919.61	6798.00
920.04	6991.00
920.47	7055.00
920.91	7069.00
921.34	7012.00
921.77	6955.00
922.20	7101.00
922.64	7128.00
923.07	7072.00
923.50	7035.00
923.93	6937.00
924.37	6870.00
924.80	6705.00
925.23	6753.00
925.66	6653.00
926.09	6394.00
926.53	6259.00
926.96	6108.00
927.39	6080.00
927.82	5861.00
928.25	5615.00
928.69	5645.00
929.12	5591.00
929.55	5449.00
929.98	5332.00
930.41	5143.00
930.84	5013.00
931.28	4876.00
931.71	4791.00
932.14	4483.00
932.57	4529.00
933.00	4361.00
933.43	4324.00
933.86	4217.00
934.30	4179.00
934.73	4270.00
935.16	4213.00
935.59	4166.00
936.02	4211.00
936.45	4212.00
936.88	4137.00
937.31	4313.00
937.75	4368.00
938.18	4434.00
938.61	4619.00
939.04	4617.00
939.47	4626.00
939.90	4547.00
940.33	4488.00
940.76	4332.00
941.19	4246.00
941.62	4209.00
942.05	4223.00
942.48	4082.00
942.91	4038.00
943.35	4132.00
943.78	4100.00
944.21	4033.00
944.64	4164.00
945.07	4185.00
945.50	4123.00
945.93	4144.00
946.36	4240.00
946.79	4271.00
947.22	4320.00
947.65	4377.00
948.08	4225.00
948.51	4339.00
948.94	4414.00
949.37	4425.00
949.80	4278.00
950.23	4276.00
950.66	4351.00
951.09	4354.00
951.52	4203.00
951.95	4333.00
952.38	4313.00
952.81	4514.00
953.24	4457.00
953.67	4479.00
954.10	4478.00
954.53	4607.00
954.96	4587.00
955.39	4660.00
955.82	4663.00
956.25	4623.00
956.68	4830.00
957.11	4691.00
957.53	4693.00
957.96	4677.00
958.39	4649.00
958.82	4565.00
959.25	4593.00
959.68	4612.00
960.11	4723.00
960.54	4740.00
960.97	4851.00
961.40	4937.00
961.83	4947.00
962.26	4879.00
962.68	5142.00
963.11	5135.00
963.54	5207.00
963.97	5140.00
964.40	5187.00
964.83	5327.00
965.26	5233.00
965.69	5278.00
966.11	5230.00
966.54	5241.00
966.97	5373.00
967.40	5421.00
967.83	5607.00
968.26	5445.00
968.69	5421.00
969.11	5440.00
969.54	5405.00
969.97	5433.00
970.40	5525.00
970.83	5492.00
971.26	5521.00
971.68	5529.00
972.11	5519.00
972.54	5586.00
972.97	5551.00
973.40	5490.00
973.82	5515.00
974.25	5523.00
974.68	5483.00
975.11	5397.00
975.54	5307.00
975.96	5370.00
976.39	5301.00
976.82	5445.00
977.25	5327.00
977.67	5323.00
978.10	5352.00
978.53	5444.00
978.96	5491.00
979.38	5548.00
979.81	5475.00
980.24	5751.00
980.67	5740.00
981.09	5760.00
981.52	5765.00
981.95	5754.00
982.38	5784.00
982.80	5753.00
983.23	5883.00
983.66	5831.00
984.08	5831.00
984.51	5745.00
984.94	5765.00
985.37	5753.00
985.79	5727.00
986.22	5575.00
986.65	5606.00
987.07	5539.00
987.50	5551.00
987.93	5521.00
988.35	5588.00
988.78	5562.00
989.21	5557.00
989.63	5709.00
990.06	5654.00
990.49	5794.00
990.91	5852.00
991.34	5755.00
991.77	5825.00
992.19	5856.00
992.62	5805.00
993.05	5854.00
993.47	5783.00
993.90	5793.00
994.32	5716.00
994.75	5599.00
995.18	5550.00
995.60	5573.00
996.03	5417.00
996.45	5566.00
996.88	5501.00
997.31	5438.00
997.73	5461.00
998.16	5489.00
998.58	5576.00
999.01	5524.00
999.44	5589.00
999.86	5637.00
1000.29	5572.00
1000.71	5644.00
1001.14	5679.00
1001.56	5612.00
1001.99	5624.00
1002.41	5580.00
1002.84	5562.00
1003.27	5448.00
1003.69	5462.00
1004.12	5350.00
1004.54	5316.00
1004.97	5265.00
1005.39	5200.00
1005.82	5225.00
1006.24	5232.00
1006.67	5169.00
1007.09	5207.00
1007.52	5266.00
1007.94	5213.00
1008.37	5404.00
1008.79	5271.00
1009.22	5257.00
1009.64	5305.00
1010.07	5188.00
1010.49	5332.00
1010.92	5270.00
1011.34	5343.00
1011.77	5240.00
1012.19	5306.00
1012.62	5250.00
1013.04	5153.00
1013.46	5235.00
1013.89	5057.00
1014.31	5113.00
1014.74	4964.00
1015.16	4981.00
1015.59	4977.00
1016.01	5002.00
1016.44	5043.00
1016.86	5831.00
1017.28	5005.00
1017.71	4998.00
1018.13	5232.00
1018.56	5143.00
1018.98	5174.00
1019.40	5034.00
1019.83	5201.00
1020.25	5161.00
1020.68	5169.00
1021.10	5211.00
1021.52	5202.00
1021.95	5390.00
1022.37	5327.00
1022.79	5175.00
1023.22	5232.00
1023.64	5167.00
1024.07	5152.00
1024.49	5146.00
1024.91	5080.00
1025.34	5018.00
1025.76	5137.00
1026.18	5043.00
1026.61	4983.00
1027.03	4960.00
1027.45	5043.00
1027.88	4993.00
1028.30	5156.00
1028.72	5025.00
1029.15	5028.00
1029.57	5042.00
1029.99	5139.00
1030.41	5024.00
1030.84	5049.00
1031.26	5017.00
1031.68	5081.00
1032.11	5029.00
1032.53	4935.00
1032.95	4917.00
1033.37	4938.00
1033.80	4936.00
1034.22	4856.00
1034.64	4936.00
1035.06	4810.00
1035.49	4746.00
1035.91	4743.00
1036.33	4709.00
1036.75	4713.00
1037.18	4751.00
1037.60	4722.00
1038.02	4790.00
1038.44	4782.00
1038.87	4675.00
1039.29	4700.00
1039.71	4733.00
1040.13	4650.00
1040.55	4778.00
1040.98	4773.00
1041.40	4659.00
1041.82	4710.00
1042.24	4632.00
1042.66	4673.00
1043.09	4550.00
1043.51	4591.00
1043.93	4536.00
1044.35	4480.00
1044.77	4518.00
1045.20	4538.00
1045.62	4473.00
1046.04	4439.00
1046.46	4439.00
1046.88	4344.00
1047.30	4423.00
1047.72	4445.00
1048.15	4405.00
1048.57	4319.00
1048.99	4369.00
1049.41	4383.00
1049.83	4414.00
1050.25	4400.00
1050.67	4370.00
1051.09	4339.00
1051.52	4344.00
1051.94	4263.00
1052.36	4315.00
1052.78	4284.00
1053.20	4358.00
1053.62	4245.00
1054.04	4317.00
1054.46	4294.00
1054.88	4381.00
1055.30	4310.00
1055.72	4244.00
1056.14	4181.00
1056.57	4348.00
1056.99	4147.00
1057.41	4161.00
1057.83	4232.00
1058.25	4102.00
1058.67	4103.00
1059.09	4106.00
1059.51	4069.00
1059.93	4099.00
1060.35	4030.00
1060.77	4088.00
1061.19	4101.00
1061.61	4047.00
1062.03	3982.00
1062.45	3980.00
1062.87	4052.00
1063.29	4109.00
1063.71	4001.00
1064.13	3967.00
1064.55	3943.00
1064.97	3984.00
1065.39	3931.00
1065.81	4004.00
1066.23	3956.00
1066.65	3931.00
1067.07	4039.00
1067.49	3943.00
1067.91	3888.00
1068.33	3863.00
1068.75	3964.00
1069.17	3905.00
1069.59	3917.00
1070.00	3886.00
1070.42	3927.00
1070.84	3885.00
1071.26	3791.00
1071.68	3801.00
1072.10	3881.00
1072.52	3815.00
1072.94	3785.00
1073.36	3841.00
1073.78	3832.00
1074.20	3840.00
1074.62	3771.00
1075.03	3783.00
1075.45	3748.00
1075.87	3869.00
1076.29	3751.00
1076.71	3843.00
1077.13	3845.00
1077.55	3697.00
1077.97	3785.00
1078.38	3748.00
1078.80	3748.00
1079.22	3721.00
1079.64	3686.00
1080.06	3687.00
1080.48	3707.00
1080.89	3673.00
1081.31	3673.00
1081.73	3664.00
1082.15	3683.00
1082.57	3717.00
1082.99	3655.00
1083.40	3649.00
1083.82	3717.00
1084.24	3607.00
1084.66	3587.00
1085.08	3660.00
1085.49	3571.00
1085.91	3654.00
1086.33	4965.00
1086.75	3641.00
1087.17	3608.00
1087.58	3635.00
1088.00	3627.00
1088.42	3665.00
1088.84	3618.00
1089.25	3561.00
1089.67	3633.00
1090.09	3613.00
1090.51	3556.00
1090.92	3634.00
1091.34	3507.00
1091.76	3533.00
1092.18	3533.00
1092.59	3554.00
1093.01	3550.00
1093.43	3535.00
1093.84	3539.00
1094.26	3512.00
1094.68	3510.00
1095.10	3485.00
1095.51	3538.00
1095.93	3463.00
1096.35	3543.00
1096.76	3525.00
1097.18	3534.00
1097.60	3419.00
1098.01	3451.00
1098.43	3455.00
1098.85	3476.00
1099.26	3453.00
1099.68	3492.00
1100.10	3405.00
1100.51	3434.00
1100.93	3417.00
1101.35	3431.00
1101.76	3441.00
1102.18	3972.00
1102.60	3486.00
1103.01	3321.00
1103.43	3387.00
1103.84	3397.00
1104.26	3362.00
1104.68	3405.00
1105.09	3325.00
1105.51	3319.00
1105.92	3425.00
1106.34	3340.00
1106.76	3397.00
1107.17	3393.00
1107.59	3392.00
1108.00	3287.00
1108.42	3328.00
1108.83	3287.00
1109.25	3295.00
1109.67	3286.00
1110.08	3277.00
1110.50	3275.00
1110.91	3294.00
1111.33	3257.00
1111.74	3240.00
1112.16	3301.00
1112.57	3282.00
1112.99	3253.00
1113.41	3276.00
1113.82	3247.00
1114.24	3297.00
1114.65	3241.00
1115.07	3191.00
1115.48	3087.00
1115.90	2188.00
1116.31	2212.00
1116.73	2207.00
1117.14	2208.00
>>>>>End Processed Spectral Data<<<<<
