SpectraSuite Data File
++++++++++++++++++++++++++++++++++++
Date: Tue May 29 12:59:46 EEST 2018
User: CanSEE
Dark Spectrum Present: No
Reference Spectrum Present: No
Number of Sampled Component Spectra: 1
Spectrometers: MAYP11278
Integration Time (usec): 250000 (MAYP11278)
Spectra Averaged: 1 (MAYP11278)
Boxcar Smoothing: 0 (MAYP11278)
Correct for Electrical Dark: No (MAYP11278)
Strobe/Lamp Enabled: No (MAYP11278)
Correct for Detector Non-linearity: No (MAYP11278)
Correct for Stray Light: No (MAYP11278)
Number of Pixels in Processed Spectrum: 2068
>>>>>Begin Processed Spectral Data<<<<<
187.82	2321.00
188.30	2226.00
188.78	2197.00
189.26	2196.00
189.73	2952.00
190.21	3104.00
190.69	3169.00
191.17	3133.00
191.64	3196.00
192.12	3147.00
192.60	3103.00
193.07	3094.00
193.55	3142.00
194.03	3141.00
194.51	3172.00
194.98	3126.00
195.46	3202.00
195.94	3139.00
196.42	3125.00
196.89	3217.00
197.37	3132.00
197.85	3121.00
198.32	3164.00
198.80	3125.00
199.28	3201.00
199.76	3133.00
200.23	3146.00
200.71	3149.00
201.19	3181.00
201.66	3187.00
202.14	3183.00
202.62	3100.00
203.09	3168.00
203.57	3094.00
204.05	3189.00
204.53	3218.00
205.00	3139.00
205.48	3142.00
205.96	3188.00
206.43	3150.00
206.91	3183.00
207.39	3258.00
207.86	3184.00
208.34	3197.00
208.82	3191.00
209.29	3203.00
209.77	3215.00
210.25	3195.00
210.72	3184.00
211.20	3200.00
211.68	3179.00
212.15	3141.00
212.63	3207.00
213.11	3202.00
213.58	3161.00
214.06	3270.00
214.53	3169.00
215.01	3203.00
215.49	3184.00
215.96	3181.00
216.44	3209.00
216.92	3219.00
217.39	3184.00
217.87	3190.00
218.35	3220.00
218.82	3112.00
219.30	3138.00
219.77	3122.00
220.25	3171.00
220.73	3254.00
221.20	3152.00
221.68	3225.00
222.15	3142.00
222.63	3225.00
223.11	3145.00
223.58	3245.00
224.06	3171.00
224.53	3141.00
225.01	3153.00
225.49	3197.00
225.96	3170.00
226.44	3195.00
226.91	3226.00
227.39	3197.00
227.87	3203.00
228.34	3230.00
228.82	3229.00
229.29	3178.00
229.77	3184.00
230.24	3159.00
230.72	3195.00
231.20	3214.00
231.67	3183.00
232.15	3170.00
232.62	3126.00
233.10	3188.00
233.57	3196.00
234.05	3317.00
234.53	3160.00
235.00	3167.00
235.48	3164.00
235.95	3153.00
236.43	3190.00
236.90	3252.00
237.38	3177.00
237.85	3195.00
238.33	3211.00
238.80	3189.00
239.28	3191.00
239.75	3172.00
240.23	3197.00
240.71	3240.00
241.18	3160.00
241.66	3202.00
242.13	3194.00
242.61	3207.00
243.08	3115.00
243.56	3157.00
244.03	3177.00
244.51	3241.00
244.98	3181.00
245.46	3227.00
245.93	4660.00
246.41	3132.00
246.88	3187.00
247.36	3202.00
247.83	3187.00
248.31	3149.00
248.78	3162.00
249.26	3176.00
249.73	3202.00
250.21	3213.00
250.68	3217.00
251.16	3180.00
251.63	3249.00
252.10	3267.00
252.58	3181.00
253.05	3235.00
253.53	3200.00
254.00	3181.00
254.48	3199.00
254.95	3199.00
255.43	3226.00
255.90	3185.00
256.38	3227.00
256.85	3179.00
257.33	3239.00
257.80	3293.00
258.27	3184.00
258.75	3171.00
259.22	3184.00
259.70	3219.00
260.17	3251.00
260.65	3177.00
261.12	3164.00
261.59	3301.00
262.07	3176.00
262.54	3213.00
263.02	3208.00
263.49	3168.00
263.97	3237.00
264.44	3215.00
264.91	3210.00
265.39	3248.00
265.86	3236.00
266.34	3236.00
266.81	3194.00
267.28	3182.00
267.76	3219.00
268.23	3175.00
268.71	3119.00
269.18	3178.00
269.65	3144.00
270.13	3213.00
270.60	3228.00
271.08	3166.00
271.55	3180.00
272.02	3160.00
272.50	3185.00
272.97	3122.00
273.44	3182.00
273.92	3300.00
274.39	3171.00
274.87	3205.00
275.34	3169.00
275.81	3146.00
276.29	3193.00
276.76	3209.00
277.23	3065.00
277.71	3109.00
278.18	3074.00
278.65	3232.00
279.13	3126.00
279.60	3157.00
280.07	3405.00
280.55	3371.00
281.02	3426.00
281.50	3270.00
281.97	3325.00
282.44	3219.00
282.91	3203.00
283.39	3237.00
283.86	3169.00
284.33	3169.00
284.81	3226.00
285.28	3192.00
285.75	3260.00
286.23	3209.00
286.70	3177.00
287.17	3239.00
287.65	3266.00
288.12	3178.00
288.59	3227.00
289.07	3137.00
289.54	3222.00
290.01	3199.00
290.48	3203.00
290.96	3178.00
291.43	3239.00
291.90	3324.00
292.38	3173.00
292.85	3232.00
293.32	3194.00
293.79	3218.00
294.27	3229.00
294.74	3204.00
295.21	3223.00
295.69	3222.00
296.16	3294.00
296.63	3266.00
297.10	3241.00
297.58	3230.00
298.05	3235.00
298.52	3210.00
298.99	3303.00
299.47	3177.00
299.94	3216.00
300.41	3190.00
300.88	3238.00
301.36	3259.00
301.83	3233.00
302.30	3163.00
302.77	3233.00
303.25	3229.00
303.72	3226.00
304.19	3202.00
304.66	3168.00
305.13	3203.00
305.61	3210.00
306.08	3244.00
306.55	3241.00
307.02	3183.00
307.49	3187.00
307.97	3221.00
308.44	3197.00
308.91	3235.00
309.38	3256.00
309.86	3211.00
310.33	3233.00
310.80	3214.00
311.27	3213.00
311.74	3259.00
312.21	3222.00
312.69	3271.00
313.16	3217.00
313.63	3177.00
314.10	3217.00
314.57	3189.00
315.05	3203.00
315.52	3259.00
315.99	3244.00
316.46	3240.00
316.93	3193.00
317.40	3202.00
317.88	3387.00
318.35	3229.00
318.82	3245.00
319.29	3179.00
319.76	3264.00
320.23	3286.00
320.70	3272.00
321.18	3213.00
321.65	3195.00
322.12	3166.00
322.59	3298.00
323.06	3203.00
323.53	3339.00
324.00	3194.00
324.48	3220.00
324.95	3243.00
325.42	3212.00
325.89	3239.00
326.36	3224.00
326.83	3260.00
327.30	3257.00
327.77	3248.00
328.24	3242.00
328.72	3233.00
329.19	3221.00
329.66	3204.00
330.13	3218.00
330.60	3285.00
331.07	3261.00
331.54	3317.00
332.01	3217.00
332.48	3354.00
332.95	3243.00
333.43	3296.00
333.90	3274.00
334.37	3229.00
334.84	3257.00
335.31	3362.00
335.78	3200.00
336.25	3240.00
336.72	3236.00
337.19	3235.00
337.66	3226.00
338.13	3224.00
338.60	3314.00
339.07	3279.00
339.54	3233.00
340.01	3224.00
340.49	3229.00
340.96	3220.00
341.43	3305.00
341.90	3219.00
342.37	3236.00
342.84	3291.00
343.31	3260.00
343.78	3238.00
344.25	3232.00
344.72	3237.00
345.19	3261.00
345.66	3230.00
346.13	3236.00
346.60	3178.00
347.07	3313.00
347.54	3200.00
348.01	3300.00
348.48	3283.00
348.95	3218.00
349.42	3242.00
349.89	3251.00
350.36	3237.00
350.83	3225.00
351.30	3254.00
351.77	3339.00
352.24	3261.00
352.71	3234.00
353.18	3288.00
353.65	3262.00
354.12	3266.00
354.59	3282.00
355.06	3248.00
355.53	3288.00
356.00	3241.00
356.47	3340.00
356.94	3247.00
357.41	3343.00
357.88	3286.00
358.35	3210.00
358.82	3214.00
359.28	3230.00
359.75	3261.00
360.22	3274.00
360.69	3298.00
361.16	3209.00
361.63	3249.00
362.10	3277.00
362.57	3238.00
363.04	3228.00
363.51	3295.00
363.98	3288.00
364.45	3208.00
364.92	3249.00
365.39	3224.00
365.86	3194.00
366.32	3266.00
366.79	3219.00
367.26	4078.00
367.73	3250.00
368.20	3218.00
368.67	3286.00
369.14	3214.00
369.61	3273.00
370.08	3204.00
370.55	3208.00
371.02	3814.00
371.48	3251.00
371.95	3210.00
372.42	3174.00
372.89	3255.00
373.36	3241.00
373.83	3229.00
374.30	3237.00
374.77	3262.00
375.23	3192.00
375.70	3299.00
376.17	3227.00
376.64	3205.00
377.11	3220.00
377.58	3240.00
378.05	3261.00
378.51	3235.00
378.98	3253.00
379.45	3255.00
379.92	3254.00
380.39	3369.00
380.86	3242.00
381.33	3315.00
381.79	3297.00
382.26	3180.00
382.73	3286.00
383.20	3246.00
383.67	3245.00
384.14	3250.00
384.60	3471.00
385.07	3215.00
385.54	3277.00
386.01	3260.00
386.48	3314.00
386.94	3188.00
387.41	3190.00
387.88	3266.00
388.35	3259.00
388.82	3291.00
389.28	3219.00
389.75	3307.00
390.22	3246.00
390.69	3274.00
391.16	3250.00
391.62	3247.00
392.09	3272.00
392.56	3215.00
393.03	3232.00
393.50	3340.00
393.96	3217.00
394.43	3288.00
394.90	3240.00
395.37	3285.00
395.83	3455.00
396.30	3229.00
396.77	3288.00
397.24	3297.00
397.70	3214.00
398.17	3266.00
398.64	3237.00
399.11	3241.00
399.57	3313.00
400.04	3230.00
400.51	3302.00
400.98	3263.00
401.44	3293.00
401.91	3314.00
402.38	3260.00
402.84	3242.00
403.31	3365.00
403.78	3255.00
404.25	3334.00
404.71	3354.00
405.18	3352.00
405.65	3273.00
406.12	3331.00
406.58	3299.00
407.05	3380.00
407.52	3287.00
407.98	3879.00
408.45	3315.00
408.92	3282.00
409.38	3326.00
409.85	3289.00
410.32	3354.00
410.78	3294.00
411.25	3347.00
411.72	3305.00
412.18	3250.00
412.65	3332.00
413.12	3293.00
413.59	3332.00
414.05	3323.00
414.52	3344.00
414.98	3325.00
415.45	3388.00
415.92	3321.00
416.38	3314.00
416.85	3371.00
417.32	3328.00
417.78	3279.00
418.25	3316.00
418.72	3331.00
419.18	3375.00
419.65	3291.00
420.12	3312.00
420.58	3260.00
421.05	3348.00
421.51	3290.00
421.98	3330.00
422.45	3301.00
422.91	3326.00
423.38	3346.00
423.85	3336.00
424.31	3294.00
424.78	3327.00
425.24	3315.00
425.71	3360.00
426.18	3282.00
426.64	3381.00
427.11	3315.00
427.57	3351.00
428.04	3276.00
428.51	3346.00
428.97	3316.00
429.44	3324.00
429.90	3318.00
430.37	3407.00
430.83	3290.00
431.30	3303.00
431.77	3379.00
432.23	3349.00
432.70	3314.00
433.16	3316.00
433.63	3321.00
434.09	3283.00
434.56	3346.00
435.03	3308.00
435.49	3335.00
435.96	3335.00
436.42	3282.00
436.89	3375.00
437.35	3327.00
437.82	3324.00
438.28	3313.00
438.75	3301.00
439.21	3460.00
439.68	3359.00
440.14	3336.00
440.61	3371.00
441.07	3306.00
441.54	3344.00
442.00	3445.00
442.47	3285.00
442.94	3342.00
443.40	3320.00
443.87	3273.00
444.33	3403.00
444.80	3358.00
445.26	3356.00
445.73	3327.00
446.19	3354.00
446.65	3348.00
447.12	3346.00
447.58	3330.00
448.05	3302.00
448.51	3372.00
448.98	3366.00
449.44	3367.00
449.91	3312.00
450.37	3362.00
450.84	3386.00
451.30	3400.00
451.77	3393.00
452.23	3355.00
452.70	3375.00
453.16	3313.00
453.62	3362.00
454.09	3385.00
454.55	3386.00
455.02	3326.00
455.48	3389.00
455.95	3393.00
456.41	3342.00
456.88	3401.00
457.34	3351.00
457.80	3342.00
458.27	3316.00
458.73	3347.00
459.20	3355.00
459.66	3405.00
460.13	3311.00
460.59	3282.00
461.05	3386.00
461.52	3338.00
461.98	3302.00
462.45	3302.00
462.91	3346.00
463.37	3304.00
463.84	3316.00
464.30	3306.00
464.76	3253.00
465.23	3274.00
465.69	3328.00
466.16	3296.00
466.62	3257.00
467.08	3314.00
467.55	3275.00
468.01	3276.00
468.48	3311.00
468.94	3254.00
469.40	3257.00
469.87	3245.00
470.33	3286.00
470.79	3251.00
471.26	3246.00
471.72	3233.00
472.18	3241.00
472.65	3250.00
473.11	3323.00
473.57	3250.00
474.04	3223.00
474.50	3231.00
474.96	3213.00
475.43	3276.00
475.89	3231.00
476.35	3237.00
476.82	3221.00
477.28	3253.00
477.74	3293.00
478.21	3251.00
478.67	3249.00
479.13	3198.00
479.59	3293.00
480.06	3229.00
480.52	3260.00
480.98	3230.00
481.45	3247.00
481.91	3232.00
482.37	3183.00
482.84	3228.00
483.30	3200.00
483.76	3237.00
484.22	3275.00
484.69	3219.00
485.15	3219.00
485.61	3167.00
486.07	3189.00
486.54	3160.00
487.00	3181.00
487.46	3159.00
487.92	3169.00
488.39	3194.00
488.85	3233.00
489.31	3244.00
489.77	3281.00
490.24	3239.00
490.70	3226.00
491.16	3182.00
491.62	3175.00
492.09	3191.00
492.55	3237.00
493.01	3241.00
493.47	3238.00
493.94	3210.00
494.40	3240.00
494.86	3242.00
495.32	3241.00
495.78	3271.00
496.25	3272.00
496.71	3263.00
497.17	3348.00
497.63	3303.00
498.09	3238.00
498.56	3268.00
499.02	3255.00
499.48	3398.00
499.94	3294.00
500.40	3294.00
500.87	3274.00
501.33	3291.00
501.79	3355.00
502.25	3344.00
502.71	3606.00
503.17	3367.00
503.64	3377.00
504.10	3373.00
504.56	3408.00
505.02	3396.00
505.48	3424.00
505.94	3476.00
506.40	3510.00
506.87	3500.00
507.33	3477.00
507.79	3544.00
508.25	3537.00
508.71	3575.00
509.17	3532.00
509.63	3564.00
510.10	3606.00
510.56	3642.00
511.02	3689.00
511.48	3739.00
511.94	3694.00
512.40	3672.00
512.86	3716.00
513.32	3777.00
513.78	3698.00
514.25	3842.00
514.71	4436.00
515.17	3800.00
515.63	3919.00
516.09	3932.00
516.55	3920.00
517.01	3969.00
517.47	3961.00
517.93	3954.00
518.39	4171.00
518.85	4072.00
519.32	4145.00
519.78	4132.00
520.24	4222.00
520.70	4247.00
521.16	4341.00
521.62	4456.00
522.08	4436.00
522.54	4465.00
523.00	4511.00
523.46	4608.00
523.92	4592.00
524.38	4713.00
524.84	4647.00
525.30	4674.00
525.76	4730.00
526.22	4647.00
526.68	4619.00
527.14	4689.00
527.60	4760.00
528.06	4833.00
528.52	4914.00
528.98	4931.00
529.44	4914.00
529.90	5013.00
530.36	4996.00
530.82	5027.00
531.28	5125.00
531.74	5045.00
532.20	5008.00
532.66	4950.00
533.12	5056.00
533.58	5057.00
534.04	5043.00
534.50	5107.00
534.96	5120.00
535.42	5144.00
535.88	5233.00
536.34	5127.00
536.80	5089.00
537.26	5159.00
537.72	5218.00
538.18	5196.00
538.64	5292.00
539.10	5235.00
539.56	5425.00
540.02	5049.00
540.48	5214.00
540.94	5171.00
541.40	5162.00
541.86	5219.00
542.32	5189.00
542.78	5182.00
543.24	5295.00
543.69	5196.00
544.15	5375.00
544.61	5284.00
545.07	5234.00
545.53	5274.00
545.99	5338.00
546.45	5254.00
546.91	5307.00
547.37	5273.00
547.83	5208.00
548.29	5268.00
548.74	5281.00
549.20	5264.00
549.66	5365.00
550.12	5245.00
550.58	5237.00
551.04	5263.00
551.50	5299.00
551.96	5375.00
552.42	5288.00
552.87	5211.00
553.33	5343.00
553.79	5315.00
554.25	5312.00
554.71	5349.00
555.17	5320.00
555.63	5294.00
556.08	5191.00
556.54	5264.00
557.00	5124.00
557.46	5197.00
557.92	5242.00
558.38	5160.00
558.83	5035.00
559.29	5089.00
559.75	4997.00
560.21	5114.00
560.67	5144.00
561.13	5115.00
561.58	5019.00
562.04	4977.00
562.50	5040.00
562.96	5055.00
563.42	5052.00
563.87	4922.00
564.33	4996.00
564.79	4970.00
565.25	4938.00
565.71	4883.00
566.16	4909.00
566.62	4882.00
567.08	4816.00
567.54	4862.00
568.00	4789.00
568.45	4741.00
568.91	4745.00
569.37	4833.00
569.83	4666.00
570.28	4643.00
570.74	4628.00
571.20	4634.00
571.66	4606.00
572.11	4622.00
572.57	4607.00
573.03	4545.00
573.49	4556.00
573.94	4557.00
574.40	4549.00
574.86	4498.00
575.32	4387.00
575.77	4422.00
576.23	4388.00
576.69	4402.00
577.15	4447.00
577.60	4383.00
578.06	4325.00
578.52	4353.00
578.97	4374.00
579.43	4337.00
579.89	4309.00
580.34	4310.00
580.80	4295.00
581.26	4298.00
581.72	4305.00
582.17	4282.00
582.63	4226.00
583.09	4260.00
583.54	4232.00
584.00	4243.00
584.46	4255.00
584.91	4219.00
585.37	4254.00
585.83	4128.00
586.28	4158.00
586.74	4146.00
587.20	4176.00
587.65	4171.00
588.11	4057.00
588.57	4076.00
589.02	3981.00
589.48	3937.00
589.94	3999.00
590.39	4111.00
590.85	4028.00
591.30	4012.00
591.76	4079.00
592.22	4023.00
592.67	4056.00
593.13	3956.00
593.59	4027.00
594.04	3993.00
594.50	4014.00
594.95	4070.00
595.41	4001.00
595.87	3967.00
596.32	4033.00
596.78	4057.00
597.23	4099.00
597.69	3999.00
598.15	3934.00
598.60	3976.00
599.06	4066.00
599.51	3964.00
599.97	3988.00
600.43	4083.00
600.88	3988.00
601.34	3954.00
601.79	3906.00
602.25	4113.00
602.70	3984.00
603.16	3979.00
603.61	3902.00
604.07	3922.00
604.53	3989.00
604.98	3956.00
605.44	3962.00
605.89	3898.00
606.35	3910.00
606.80	3919.00
607.26	3898.00
607.71	3919.00
608.17	3872.00
608.62	3833.00
609.08	3986.00
609.53	3890.00
609.99	3825.00
610.44	3823.00
610.90	3846.00
611.35	3825.00
611.81	3897.00
612.26	3821.00
612.72	3814.00
613.17	3908.00
613.63	3739.00
614.08	3722.00
614.54	3745.00
614.99	3705.00
615.45	3714.00
615.90	3708.00
616.36	3648.00
616.81	3671.00
617.27	3726.00
617.72	3714.00
618.18	3724.00
618.63	3662.00
619.09	3675.00
619.54	3704.00
619.99	3703.00
620.45	3705.00
620.90	3728.00
621.36	3655.00
621.81	3691.00
622.27	3700.00
622.72	3674.00
623.18	3594.00
623.63	3589.00
624.08	3668.00
624.54	3594.00
624.99	3637.00
625.45	3655.00
625.90	3606.00
626.35	3619.00
626.81	3649.00
627.26	3582.00
627.72	3584.00
628.17	3626.00
628.62	3545.00
629.08	3598.00
629.53	3585.00
629.99	3594.00
630.44	3613.00
630.89	3590.00
631.35	3648.00
631.80	3637.00
632.26	3675.00
632.71	3566.00
633.16	3566.00
633.62	3538.00
634.07	3622.00
634.52	3563.00
634.98	3602.00
635.43	3601.00
635.88	3523.00
636.34	3580.00
636.79	3554.00
637.24	3535.00
637.70	3599.00
638.15	3600.00
638.60	3530.00
639.06	3496.00
639.51	3484.00
639.96	3475.00
640.42	3478.00
640.87	3553.00
641.32	3433.00
641.78	3447.00
642.23	3425.00
642.68	3420.00
643.14	3440.00
643.59	3448.00
644.04	3377.00
644.49	3382.00
644.95	3373.00
645.40	3364.00
645.85	3365.00
646.31	3404.00
646.76	3342.00
647.21	3380.00
647.66	3381.00
648.12	3335.00
648.57	3276.00
649.02	3353.00
649.47	3316.00
649.93	3454.00
650.38	3281.00
650.83	3258.00
651.28	3281.00
651.74	3282.00
652.19	3255.00
652.64	3273.00
653.09	3312.00
653.55	3247.00
654.00	3277.00
654.45	3288.00
654.90	3264.00
655.35	3195.00
655.81	3246.00
656.26	3166.00
656.71	3219.00
657.16	3269.00
657.62	3273.00
658.07	3218.00
658.52	3264.00
658.97	3183.00
659.42	3409.00
659.88	3174.00
660.33	3273.00
660.78	3199.00
661.23	3195.00
661.68	3175.00
662.13	3190.00
662.59	3145.00
663.04	3218.00
663.49	3158.00
663.94	3178.00
664.39	3161.00
664.84	3164.00
665.30	3142.00
665.75	3142.00
666.20	3167.00
666.65	3161.00
667.10	3239.00
667.55	3186.00
668.00	3100.00
668.46	3146.00
668.91	3099.00
669.36	3234.00
669.81	3072.00
670.26	3126.00
670.71	3180.00
671.16	3110.00
671.61	3182.00
672.06	3199.00
672.52	3093.00
672.97	3107.00
673.42	3187.00
673.87	3259.00
674.32	3127.00
674.77	3145.00
675.22	3089.00
675.67	3069.00
676.12	3123.00
676.57	3120.00
677.02	3087.00
677.47	3066.00
677.93	3217.00
678.38	3092.00
678.83	3106.00
679.28	3138.00
679.73	3083.00
680.18	3126.00
680.63	3074.00
681.08	3086.00
681.53	3083.00
681.98	3105.00
682.43	3132.00
682.88	3181.00
683.33	3172.00
683.78	3178.00
684.23	3180.00
684.68	3180.00
685.13	3165.00
685.58	3182.00
686.03	3175.00
686.48	3143.00
686.93	3142.00
687.38	3120.00
687.83	3181.00
688.28	3186.00
688.73	3371.00
689.18	3305.00
689.63	3238.00
690.08	3281.00
690.53	3299.00
690.98	3317.00
691.43	3405.00
691.88	3429.00
692.33	3447.00
692.78	3538.00
693.23	3581.00
693.68	3638.00
694.13	3610.00
694.58	3674.00
695.03	3912.00
695.48	3820.00
695.93	3822.00
696.38	4044.00
696.83	3997.00
697.28	4079.00
697.72	4102.00
698.17	4147.00
698.62	4199.00
699.07	4328.00
699.52	4332.00
699.97	4336.00
700.42	4471.00
700.87	4550.00
701.32	4731.00
701.77	4560.00
702.22	4729.00
702.67	4693.00
703.11	4800.00
703.56	4883.00
704.01	4940.00
704.46	5031.00
704.91	5115.00
705.36	5207.00
705.81	5299.00
706.26	5199.00
706.70	5364.00
707.15	5375.00
707.60	5457.00
708.05	5571.00
708.50	5638.00
708.95	5654.00
709.40	5755.00
709.84	5754.00
710.29	5831.00
710.74	5930.00
711.19	5951.00
711.64	5979.00
712.09	6134.00
712.53	6176.00
712.98	6319.00
713.43	6182.00
713.88	6285.00
714.33	6350.00
714.78	6337.00
715.22	6407.00
715.67	6374.00
716.12	6382.00
716.57	6214.00
717.02	6061.00
717.46	5997.00
717.91	6024.00
718.36	5961.00
718.81	5966.00
719.26	5954.00
719.70	5955.00
720.15	6155.00
720.60	6215.00
721.05	6587.00
721.49	6784.00
721.94	7011.00
722.39	6991.00
722.84	6840.00
723.28	6652.00
723.73	6615.00
724.18	6676.00
724.63	6841.00
725.07	6756.00
725.52	6871.00
725.97	6965.00
726.42	7124.00
726.86	7242.00
727.31	7101.00
727.76	7136.00
728.21	7302.00
728.65	7262.00
729.10	7281.00
729.55	7316.00
729.99	7525.00
730.44	7523.00
730.89	7620.00
731.33	7811.00
731.78	7791.00
732.23	8086.00
732.68	8192.00
733.12	8367.00
733.57	8410.00
734.02	8523.00
734.46	8627.00
734.91	8614.00
735.36	8657.00
735.80	8773.00
736.25	8725.00
736.70	8771.00
737.14	8883.00
737.59	8984.00
738.04	8987.00
738.48	8934.00
738.93	9067.00
739.37	8989.00
739.82	9277.00
740.27	9213.00
740.71	9242.00
741.16	9272.00
741.61	9328.00
742.05	9424.00
742.50	9348.00
742.94	9423.00
743.39	9470.00
743.84	9575.00
744.28	9562.00
744.73	9648.00
745.18	9589.00
745.62	9762.00
746.07	9710.00
746.51	9718.00
746.96	9657.00
747.40	9567.00
747.85	9739.00
748.30	9753.00
748.74	9654.00
749.19	9642.00
749.63	9813.00
750.08	9719.00
750.52	9697.00
750.97	9639.00
751.42	9726.00
751.86	9665.00
752.31	9665.00
752.75	9704.00
753.20	9615.00
753.64	9718.00
754.09	9637.00
754.53	9708.00
754.98	9679.00
755.42	9696.00
755.87	9635.00
756.31	9604.00
756.76	9565.00
757.20	9674.00
757.65	9555.00
758.09	9330.00
758.54	9213.00
758.98	8525.00
759.43	7198.00
759.87	5839.00
760.32	4975.00
760.76	4727.00
761.21	5294.00
761.65	6068.00
762.10	6328.00
762.54	6060.00
762.99	5837.00
763.43	5973.00
763.88	6169.00
764.32	6420.00
764.77	6866.00
765.21	7214.00
765.66	7519.00
766.10	7771.00
766.54	8202.00
766.99	8419.00
767.43	8720.00
767.88	8919.00
768.32	8981.00
768.77	9089.00
769.21	9351.00
769.66	9411.00
770.10	9366.00
770.54	9489.00
770.99	9428.00
771.43	9491.00
771.88	9429.00
772.32	9439.00
772.76	9409.00
773.21	9479.00
773.65	9470.00
774.10	9428.00
774.54	9326.00
774.98	9363.00
775.43	9572.00
775.87	9630.00
776.31	9501.00
776.76	9613.00
777.20	9498.00
777.65	9383.00
778.09	9403.00
778.53	9401.00
778.98	9302.00
779.42	9492.00
779.86	9262.00
780.31	9421.00
780.75	9452.00
781.19	9428.00
781.64	9302.00
782.08	9406.00
782.52	9418.00
782.97	9290.00
783.41	9292.00
783.85	9309.00
784.30	9198.00
784.74	9133.00
785.18	9192.00
785.63	9110.00
786.07	9255.00
786.51	9149.00
786.95	9244.00
787.40	9040.00
787.84	9136.00
788.28	9031.00
788.73	8999.00
789.17	8975.00
789.61	8771.00
790.05	8811.00
790.50	8734.00
790.94	8763.00
791.38	8699.00
791.82	8696.00
792.27	8752.00
792.71	8889.00
793.15	8947.00
793.59	8883.00
794.04	8768.00
794.48	8738.00
794.92	8599.00
795.36	8552.00
795.81	8470.00
796.25	8432.00
796.69	8560.00
797.13	8561.00
797.57	8694.00
798.02	8759.00
798.46	8796.00
798.90	8686.00
799.34	8595.00
799.79	8648.00
800.23	8443.00
800.67	8342.00
801.11	8396.00
801.55	8402.00
801.99	8313.00
802.44	8385.00
802.88	8460.00
803.32	8495.00
803.76	8397.00
804.20	8543.00
804.64	8449.00
805.09	8596.00
805.53	8605.00
805.97	8493.00
806.41	8365.00
806.85	8412.00
807.29	8230.00
807.74	8278.00
808.18	8184.00
808.62	8247.00
809.06	8226.00
809.50	8151.00
809.94	8227.00
810.38	8267.00
810.82	8360.00
811.27	8183.00
811.71	8003.00
812.15	7829.00
812.59	7841.00
813.03	7631.00
813.47	7489.00
813.91	7210.00
814.35	7212.00
814.79	7171.00
815.23	7123.00
815.67	7071.00
816.12	6999.00
816.56	7046.00
817.00	7139.00
817.44	7078.00
817.88	7167.00
818.32	7089.00
818.76	7032.00
819.20	7058.00
819.64	7016.00
820.08	7234.00
820.52	7289.00
820.96	7554.00
821.40	7346.00
821.84	7225.00
822.28	6923.00
822.72	6937.00
823.16	6790.00
823.60	7040.00
824.04	7367.00
824.48	7524.00
824.92	7485.00
825.36	7408.00
825.80	7449.00
826.24	7364.00
826.68	7230.00
827.12	7271.00
827.56	7250.00
828.00	7231.00
828.44	7235.00
828.88	7296.00
829.32	7388.00
829.76	7348.00
830.20	7479.00
830.64	7405.00
831.08	7405.00
831.52	7297.00
831.96	7239.00
832.40	7119.00
832.84	7204.00
833.28	7252.00
833.72	7407.00
834.16	7468.00
834.60	7585.00
835.04	7697.00
835.48	7725.00
835.91	7653.00
836.35	7593.00
836.79	7570.00
837.23	7580.00
837.67	7607.00
838.11	7441.00
838.55	7531.00
838.99	7508.00
839.43	7624.00
839.87	7689.00
840.30	7726.00
840.74	7757.00
841.18	7771.00
841.62	7807.00
842.06	7785.00
842.50	7808.00
842.94	7685.00
843.38	7617.00
843.81	7584.00
844.25	7450.00
844.69	7454.00
845.13	7429.00
845.57	7513.00
846.01	7580.00
846.45	7528.00
846.88	7539.00
847.32	7656.00
847.76	7770.00
848.20	7740.00
848.64	7740.00
849.08	7643.00
849.51	7634.00
849.95	7499.00
850.39	7411.00
850.83	7582.00
851.27	7383.00
851.70	7382.00
852.14	7444.00
852.58	7337.00
853.02	7181.00
853.46	6969.00
853.89	7020.00
854.33	7061.00
854.77	7182.00
855.21	7330.00
855.65	7637.00
856.08	7680.00
856.52	7678.00
856.96	7703.00
857.40	7502.00
857.83	7390.00
858.27	7478.00
858.71	7241.00
859.15	7344.00
859.58	7362.00
860.02	7448.00
860.46	7496.00
860.89	7577.00
861.33	7578.00
861.77	7723.00
862.21	7703.00
862.64	7698.00
863.08	7555.00
863.52	7660.00
863.95	7491.00
864.39	7422.00
864.83	7284.00
865.27	6924.00
865.70	7008.00
866.14	6900.00
866.58	6934.00
867.01	7088.00
867.45	7327.00
867.89	7412.00
868.32	7501.00
868.76	7607.00
869.20	7519.00
869.63	7561.00
870.07	7587.00
870.51	7318.00
870.94	7231.00
871.38	7143.00
871.82	7096.00
872.25	7183.00
872.69	7030.00
873.13	7002.00
873.56	7220.00
874.00	7248.00
874.43	7283.00
874.87	7370.00
875.31	7483.00
875.74	7388.00
876.18	7491.00
876.61	7435.00
877.05	7381.00
877.49	7323.00
877.92	7209.00
878.36	7159.00
878.79	7033.00
879.23	7058.00
879.67	6857.00
880.10	6908.00
880.54	6995.00
880.97	6905.00
881.41	7197.00
881.84	7262.00
882.28	7320.00
882.72	7359.00
883.15	7453.00
883.59	7471.00
884.02	7350.00
884.46	7338.00
884.89	7250.00
885.33	7217.00
885.76	7027.00
886.20	6866.00
886.63	6958.00
887.07	6750.00
887.50	6806.00
887.94	6917.00
888.37	6959.00
888.81	7087.00
889.24	7021.00
889.68	7122.00
890.11	7194.00
890.55	7223.00
890.98	7240.00
891.42	7239.00
891.85	7171.00
892.29	7155.00
892.72	7014.00
893.16	6794.00
893.59	6717.00
894.03	6566.00
894.46	6468.00
894.90	6283.00
895.33	6091.00
895.77	6145.00
896.20	6155.00
896.63	6171.00
897.07	6128.00
897.50	6124.00
897.94	6146.00
898.37	6362.00
898.81	6075.00
899.24	5941.00
899.68	6161.00
900.11	6165.00
900.54	5990.00
900.98	5966.00
901.41	6020.00
901.85	5993.00
902.28	6006.00
902.71	6005.00
903.15	6174.00
903.58	6284.00
904.02	6377.00
904.45	6260.00
904.88	6327.00
905.32	6297.00
905.75	6267.00
906.18	6104.00
906.62	6199.00
907.05	6005.00
907.48	6081.00
907.92	6025.00
908.35	5963.00
908.79	5921.00
909.22	5807.00
909.65	5870.00
910.09	5817.00
910.52	6004.00
910.95	5734.00
911.38	5850.00
911.82	5698.00
912.25	5811.00
912.68	5880.00
913.12	5876.00
913.55	5848.00
913.98	5927.00
914.42	6093.00
914.85	6094.00
915.28	5914.00
915.72	5922.00
916.15	5767.00
916.58	5894.00
917.01	5736.00
917.45	5695.00
917.88	5739.00
918.31	5848.00
918.74	5910.00
919.18	6034.00
919.61	6046.00
920.04	6122.00
920.47	6203.00
920.91	6208.00
921.34	6161.00
921.77	6127.00
922.20	6244.00
922.64	6228.00
923.07	6205.00
923.50	6118.00
923.93	5948.00
924.37	5976.00
924.80	5914.00
925.23	5905.00
925.66	5857.00
926.09	5629.00
926.53	5584.00
926.96	5383.00
927.39	5425.00
927.82	5232.00
928.25	4981.00
928.69	5031.00
929.12	4943.00
929.55	4814.00
929.98	4756.00
930.41	4590.00
930.84	4540.00
931.28	4276.00
931.71	4244.00
932.14	4085.00
932.57	4020.00
933.00	3938.00
933.43	3882.00
933.86	3813.00
934.30	3714.00
934.73	3858.00
935.16	3806.00
935.59	3732.00
936.02	3766.00
936.45	3837.00
936.88	3712.00
937.31	3925.00
937.75	3934.00
938.18	3997.00
938.61	4129.00
939.04	4171.00
939.47	4104.00
939.90	4112.00
940.33	4050.00
940.76	3845.00
941.19	3843.00
941.62	3758.00
942.05	3765.00
942.48	3696.00
942.91	3599.00
943.35	3699.00
943.78	3680.00
944.21	3663.00
944.64	3761.00
945.07	3781.00
945.50	3739.00
945.93	3756.00
946.36	3866.00
946.79	3839.00
947.22	3943.00
947.65	3908.00
948.08	3784.00
948.51	3880.00
948.94	3941.00
949.37	4000.00
949.80	3906.00
950.23	3881.00
950.66	3903.00
951.09	3934.00
951.52	3783.00
951.95	3884.00
952.38	3894.00
952.81	4042.00
953.24	4032.00
953.67	4055.00
954.10	4060.00
954.53	4104.00
954.96	4105.00
955.39	4152.00
955.82	4158.00
956.25	4215.00
956.68	4306.00
957.11	4244.00
957.53	4207.00
957.96	4142.00
958.39	4151.00
958.82	4059.00
959.25	4106.00
959.68	4144.00
960.11	4271.00
960.54	4311.00
960.97	4321.00
961.40	4432.00
961.83	4459.00
962.26	4438.00
962.68	4558.00
963.11	4598.00
963.54	4660.00
963.97	4666.00
964.40	4577.00
964.83	4684.00
965.26	4669.00
965.69	4694.00
966.11	4681.00
966.54	4633.00
966.97	4796.00
967.40	4870.00
967.83	4968.00
968.26	4790.00
968.69	4825.00
969.11	4865.00
969.54	4819.00
969.97	4857.00
970.40	4958.00
970.83	4886.00
971.26	4934.00
971.68	4914.00
972.11	4938.00
972.54	4983.00
972.97	4999.00
973.40	4924.00
973.82	4873.00
974.25	4904.00
974.68	4820.00
975.11	4829.00
975.54	4734.00
975.96	4778.00
976.39	4737.00
976.82	4856.00
977.25	4775.00
977.67	4759.00
978.10	4768.00
978.53	4818.00
978.96	4906.00
979.38	4916.00
979.81	4926.00
980.24	5005.00
980.67	5101.00
981.09	5105.00
981.52	5140.00
981.95	5066.00
982.38	5129.00
982.80	5169.00
983.23	5167.00
983.66	5256.00
984.08	5120.00
984.51	5060.00
984.94	5110.00
985.37	5143.00
985.79	4997.00
986.22	4938.00
986.65	4943.00
987.07	4950.00
987.50	4938.00
987.93	4909.00
988.35	4996.00
988.78	4933.00
989.21	5064.00
989.63	5062.00
990.06	5105.00
990.49	5123.00
990.91	5231.00
991.34	5158.00
991.77	5155.00
992.19	5216.00
992.62	5146.00
993.05	5185.00
993.47	5144.00
993.90	5115.00
994.32	5058.00
994.75	5026.00
995.18	4905.00
995.60	4895.00
996.03	4867.00
996.45	4934.00
996.88	4914.00
997.31	4843.00
997.73	4817.00
998.16	4812.00
998.58	4920.00
999.01	4898.00
999.44	4943.00
999.86	5047.00
1000.29	4878.00
1000.71	4982.00
1001.14	5005.00
1001.56	5031.00
1001.99	4985.00
1002.41	4974.00
1002.84	4914.00
1003.27	4822.00
1003.69	4803.00
1004.12	4730.00
1004.54	4778.00
1004.97	4711.00
1005.39	4658.00
1005.82	4626.00
1006.24	4659.00
1006.67	4664.00
1007.09	4590.00
1007.52	4670.00
1007.94	4617.00
1008.37	4813.00
1008.79	4635.00
1009.22	4708.00
1009.64	4655.00
1010.07	4727.00
1010.49	4709.00
1010.92	4667.00
1011.34	4692.00
1011.77	4662.00
1012.19	4709.00
1012.62	4695.00
1013.04	4573.00
1013.46	4606.00
1013.89	4501.00
1014.31	4542.00
1014.74	4412.00
1015.16	4501.00
1015.59	4433.00
1016.01	4500.00
1016.44	4403.00
1016.86	5429.00
1017.28	4474.00
1017.71	4465.00
1018.13	4606.00
1018.56	4613.00
1018.98	4577.00
1019.40	4547.00
1019.83	4550.00
1020.25	4636.00
1020.68	4598.00
1021.10	4659.00
1021.52	4607.00
1021.95	4794.00
1022.37	4688.00
1022.79	4625.00
1023.22	4622.00
1023.64	4536.00
1024.07	4594.00
1024.49	4534.00
1024.91	4494.00
1025.34	4426.00
1025.76	4586.00
1026.18	4470.00
1026.61	4446.00
1027.03	4470.00
1027.45	4435.00
1027.88	4444.00
1028.30	4542.00
1028.72	4469.00
1029.15	4514.00
1029.57	4512.00
1029.99	4542.00
1030.41	4476.00
1030.84	4479.00
1031.26	4503.00
1031.68	4451.00
1032.11	4453.00
1032.53	4442.00
1032.95	4334.00
1033.37	4416.00
1033.80	4377.00
1034.22	4291.00
1034.64	4333.00
1035.06	4237.00
1035.49	4249.00
1035.91	4277.00
1036.33	4116.00
1036.75	4241.00
1037.18	4211.00
1037.60	4210.00
1038.02	4213.00
1038.44	4206.00
1038.87	4144.00
1039.29	4246.00
1039.71	4233.00
1040.13	4211.00
1040.55	4262.00
1040.98	4237.00
1041.40	4191.00
1041.82	4171.00
1042.24	4138.00
1042.66	4164.00
1043.09	4076.00
1043.51	4111.00
1043.93	4021.00
1044.35	3984.00
1044.77	4050.00
1045.20	4045.00
1045.62	3926.00
1046.04	3963.00
1046.46	3984.00
1046.88	3901.00
1047.30	3970.00
1047.72	3965.00
1048.15	3942.00
1048.57	3891.00
1048.99	3903.00
1049.41	3960.00
1049.83	3910.00
1050.25	3947.00
1050.67	3938.00
1051.09	3876.00
1051.52	3910.00
1051.94	3798.00
1052.36	3876.00
1052.78	3811.00
1053.20	3820.00
1053.62	3788.00
1054.04	3826.00
1054.46	3817.00
1054.88	3888.00
1055.30	3793.00
1055.72	3824.00
1056.14	3773.00
1056.57	3887.00
1056.99	3712.00
1057.41	3713.00
1057.83	3729.00
1058.25	3632.00
1058.67	3678.00
1059.09	3674.00
1059.51	3683.00
1059.93	3652.00
1060.35	3609.00
1060.77	3664.00
1061.19	3703.00
1061.61	3613.00
1062.03	3612.00
1062.45	3610.00
1062.87	3630.00
1063.29	3646.00
1063.71	3584.00
1064.13	3559.00
1064.55	3567.00
1064.97	3628.00
1065.39	3588.00
1065.81	3596.00
1066.23	3546.00
1066.65	3542.00
1067.07	3611.00
1067.49	3516.00
1067.91	3501.00
1068.33	3471.00
1068.75	3583.00
1069.17	3541.00
1069.59	3551.00
1070.00	3459.00
1070.42	3488.00
1070.84	3446.00
1071.26	3417.00
1071.68	3425.00
1072.10	3474.00
1072.52	3459.00
1072.94	3418.00
1073.36	3414.00
1073.78	3437.00
1074.20	3465.00
1074.62	3410.00
1075.03	3404.00
1075.45	3410.00
1075.87	3505.00
1076.29	3403.00
1076.71	3406.00
1077.13	3498.00
1077.55	3381.00
1077.97	3393.00
1078.38	3406.00
1078.80	3371.00
1079.22	3391.00
1079.64	3405.00
1080.06	3360.00
1080.48	3364.00
1080.89	3329.00
1081.31	3349.00
1081.73	3353.00
1082.15	3334.00
1082.57	3337.00
1082.99	3306.00
1083.40	3280.00
1083.82	3350.00
1084.24	3327.00
1084.66	3270.00
1085.08	3300.00
1085.49	3267.00
1085.91	3336.00
1086.33	4374.00
1086.75	3305.00
1087.17	3267.00
1087.58	3269.00
1088.00	3300.00
1088.42	3342.00
1088.84	3275.00
1089.25	3229.00
1089.67	3243.00
1090.09	3300.00
1090.51	3213.00
1090.92	3258.00
1091.34	3196.00
1091.76	3223.00
1092.18	3226.00
1092.59	3194.00
1093.01	3192.00
1093.43	3210.00
1093.84	3184.00
1094.26	3185.00
1094.68	3189.00
1095.10	3169.00
1095.51	3187.00
1095.93	3152.00
1096.35	3205.00
1096.76	3185.00
1097.18	3226.00
1097.60	3159.00
1098.01	3176.00
1098.43	3155.00
1098.85	3178.00
1099.26	3116.00
1099.68	3135.00
1100.10	3088.00
1100.51	3114.00
1100.93	3104.00
1101.35	3110.00
1101.76	3125.00
1102.18	3541.00
1102.60	3149.00
1103.01	3086.00
1103.43	3105.00
1103.84	3100.00
1104.26	3066.00
1104.68	3084.00
1105.09	3019.00
1105.51	3065.00
1105.92	3116.00
1106.34	3040.00
1106.76	3106.00
1107.17	3079.00
1107.59	3080.00
1108.00	3003.00
1108.42	3020.00
1108.83	3024.00
1109.25	3049.00
1109.67	2990.00
1110.08	3049.00
1110.50	3005.00
1110.91	2987.00
1111.33	2975.00
1111.74	2996.00
1112.16	3023.00
1112.57	3014.00
1112.99	2988.00
1113.41	2995.00
1113.82	2981.00
1114.24	3000.00
1114.65	2953.00
1115.07	2901.00
1115.48	2863.00
1115.90	2188.00
1116.31	2200.00
1116.73	2196.00
1117.14	2201.00
>>>>>End Processed Spectral Data<<<<<
