SpectraSuite Data File
++++++++++++++++++++++++++++++++++++
Date: Tue May 29 12:59:46 EEST 2018
User: CanSEE
Dark Spectrum Present: No
Reference Spectrum Present: No
Number of Sampled Component Spectra: 1
Spectrometers: MAYP11278
Integration Time (usec): 250000 (MAYP11278)
Spectra Averaged: 1 (MAYP11278)
Boxcar Smoothing: 0 (MAYP11278)
Correct for Electrical Dark: No (MAYP11278)
Strobe/Lamp Enabled: No (MAYP11278)
Correct for Detector Non-linearity: No (MAYP11278)
Correct for Stray Light: No (MAYP11278)
Number of Pixels in Processed Spectrum: 2068
>>>>>Begin Processed Spectral Data<<<<<
187.82	2324.00
188.30	2227.00
188.78	2199.00
189.26	2200.00
189.73	3000.00
190.21	3067.00
190.69	3140.00
191.17	3178.00
191.64	3169.00
192.12	3147.00
192.60	3125.00
193.07	3101.00
193.55	3118.00
194.03	3158.00
194.51	3177.00
194.98	3134.00
195.46	3179.00
195.94	3138.00
196.42	3130.00
196.89	3223.00
197.37	3138.00
197.85	3120.00
198.32	3094.00
198.80	3130.00
199.28	3200.00
199.76	3199.00
200.23	3145.00
200.71	3138.00
201.19	3169.00
201.66	3174.00
202.14	3212.00
202.62	3116.00
203.09	3197.00
203.57	3139.00
204.05	3197.00
204.53	3220.00
205.00	3148.00
205.48	3128.00
205.96	3225.00
206.43	3155.00
206.91	3187.00
207.39	3279.00
207.86	3188.00
208.34	3175.00
208.82	3172.00
209.29	3218.00
209.77	3146.00
210.25	3193.00
210.72	3207.00
211.20	3188.00
211.68	3143.00
212.15	3191.00
212.63	3211.00
213.11	3214.00
213.58	3154.00
214.06	3249.00
214.53	3206.00
215.01	3208.00
215.49	3215.00
215.96	3195.00
216.44	3220.00
216.92	3199.00
217.39	3158.00
217.87	3143.00
218.35	3164.00
218.82	3105.00
219.30	3153.00
219.77	3185.00
220.25	3195.00
220.73	3222.00
221.20	3206.00
221.68	3195.00
222.15	3135.00
222.63	3194.00
223.11	3196.00
223.58	3199.00
224.06	3193.00
224.53	3148.00
225.01	3123.00
225.49	3163.00
225.96	3177.00
226.44	3182.00
226.91	3218.00
227.39	3164.00
227.87	3199.00
228.34	3216.00
228.82	3185.00
229.29	3169.00
229.77	3181.00
230.24	3137.00
230.72	3189.00
231.20	3229.00
231.67	3172.00
232.15	3167.00
232.62	3127.00
233.10	3205.00
233.57	3180.00
234.05	3324.00
234.53	3217.00
235.00	3155.00
235.48	3130.00
235.95	3189.00
236.43	3239.00
236.90	3268.00
237.38	3170.00
237.85	3203.00
238.33	3166.00
238.80	3175.00
239.28	3190.00
239.75	3138.00
240.23	3209.00
240.71	3228.00
241.18	3182.00
241.66	3168.00
242.13	3208.00
242.61	3221.00
243.08	3138.00
243.56	3144.00
244.03	3194.00
244.51	3239.00
244.98	3143.00
245.46	3257.00
245.93	4671.00
246.41	3114.00
246.88	3174.00
247.36	3182.00
247.83	3180.00
248.31	3185.00
248.78	3105.00
249.26	3194.00
249.73	3229.00
250.21	3178.00
250.68	3254.00
251.16	3188.00
251.63	3248.00
252.10	3246.00
252.58	3150.00
253.05	3246.00
253.53	3177.00
254.00	3213.00
254.48	3235.00
254.95	3211.00
255.43	3205.00
255.90	3149.00
256.38	3199.00
256.85	3233.00
257.33	3231.00
257.80	3312.00
258.27	3204.00
258.75	3179.00
259.22	3176.00
259.70	3232.00
260.17	3253.00
260.65	3199.00
261.12	3230.00
261.59	3255.00
262.07	3194.00
262.54	3268.00
263.02	3199.00
263.49	3184.00
263.97	3229.00
264.44	3251.00
264.91	3190.00
265.39	3214.00
265.86	3195.00
266.34	3224.00
266.81	3201.00
267.28	3182.00
267.76	3225.00
268.23	3190.00
268.71	3125.00
269.18	3141.00
269.65	3149.00
270.13	3186.00
270.60	3227.00
271.08	3196.00
271.55	3187.00
272.02	3146.00
272.50	3176.00
272.97	3162.00
273.44	3190.00
273.92	3315.00
274.39	3212.00
274.87	3222.00
275.34	3172.00
275.81	3153.00
276.29	3202.00
276.76	3179.00
277.23	3098.00
277.71	3112.00
278.18	3088.00
278.65	3232.00
279.13	3080.00
279.60	3186.00
280.07	3385.00
280.55	3405.00
281.02	3411.00
281.50	3244.00
281.97	3308.00
282.44	3207.00
282.91	3258.00
283.39	3273.00
283.86	3197.00
284.33	3158.00
284.81	3246.00
285.28	3205.00
285.75	3259.00
286.23	3231.00
286.70	3126.00
287.17	3231.00
287.65	3302.00
288.12	3195.00
288.59	3236.00
289.07	3152.00
289.54	3260.00
290.01	3180.00
290.48	3211.00
290.96	3176.00
291.43	3211.00
291.90	3303.00
292.38	3160.00
292.85	3242.00
293.32	3174.00
293.79	3205.00
294.27	3225.00
294.74	3179.00
295.21	3218.00
295.69	3242.00
296.16	3265.00
296.63	3252.00
297.10	3203.00
297.58	3234.00
298.05	3240.00
298.52	3193.00
298.99	3278.00
299.47	3180.00
299.94	3243.00
300.41	3160.00
300.88	3256.00
301.36	3222.00
301.83	3241.00
302.30	3184.00
302.77	3226.00
303.25	3246.00
303.72	3184.00
304.19	3223.00
304.66	3190.00
305.13	3236.00
305.61	3230.00
306.08	3253.00
306.55	3227.00
307.02	3176.00
307.49	3180.00
307.97	3182.00
308.44	3193.00
308.91	3217.00
309.38	3263.00
309.86	3205.00
310.33	3212.00
310.80	3212.00
311.27	3221.00
311.74	3234.00
312.21	3256.00
312.69	3273.00
313.16	3153.00
313.63	3217.00
314.10	3217.00
314.57	3194.00
315.05	3212.00
315.52	3243.00
315.99	3221.00
316.46	3227.00
316.93	3217.00
317.40	3217.00
317.88	3340.00
318.35	3235.00
318.82	3230.00
319.29	3167.00
319.76	3222.00
320.23	3298.00
320.70	3277.00
321.18	3226.00
321.65	3170.00
322.12	3216.00
322.59	3319.00
323.06	3200.00
323.53	3310.00
324.00	3212.00
324.48	3278.00
324.95	3266.00
325.42	3235.00
325.89	3236.00
326.36	3203.00
326.83	3263.00
327.30	3276.00
327.77	3239.00
328.24	3226.00
328.72	3218.00
329.19	3220.00
329.66	3227.00
330.13	3205.00
330.60	3260.00
331.07	3270.00
331.54	3310.00
332.01	3187.00
332.48	3309.00
332.95	3281.00
333.43	3249.00
333.90	3270.00
334.37	3280.00
334.84	3294.00
335.31	3401.00
335.78	3221.00
336.25	3247.00
336.72	3256.00
337.19	3273.00
337.66	3221.00
338.13	3202.00
338.60	3283.00
339.07	3268.00
339.54	3191.00
340.01	3215.00
340.49	3229.00
340.96	3230.00
341.43	3255.00
341.90	3211.00
342.37	3199.00
342.84	3286.00
343.31	3259.00
343.78	3226.00
344.25	3216.00
344.72	3222.00
345.19	3211.00
345.66	3260.00
346.13	3211.00
346.60	3193.00
347.07	3261.00
347.54	3205.00
348.01	3257.00
348.48	3246.00
348.95	3162.00
349.42	3250.00
349.89	3266.00
350.36	3230.00
350.83	3212.00
351.30	3258.00
351.77	3361.00
352.24	3259.00
352.71	3243.00
353.18	3209.00
353.65	3278.00
354.12	3244.00
354.59	3270.00
355.06	3239.00
355.53	3292.00
356.00	3219.00
356.47	3312.00
356.94	3255.00
357.41	3359.00
357.88	3255.00
358.35	3199.00
358.82	3274.00
359.28	3214.00
359.75	3222.00
360.22	3290.00
360.69	3332.00
361.16	3215.00
361.63	3247.00
362.10	3274.00
362.57	3238.00
363.04	3268.00
363.51	3353.00
363.98	3293.00
364.45	3222.00
364.92	3271.00
365.39	3211.00
365.86	3235.00
366.32	3259.00
366.79	3228.00
367.26	4056.00
367.73	3233.00
368.20	3191.00
368.67	3291.00
369.14	3221.00
369.61	3280.00
370.08	3263.00
370.55	3239.00
371.02	3799.00
371.48	3265.00
371.95	3224.00
372.42	3204.00
372.89	3198.00
373.36	3255.00
373.83	3200.00
374.30	3224.00
374.77	3245.00
375.23	3215.00
375.70	3278.00
376.17	3210.00
376.64	3230.00
377.11	3205.00
377.58	3279.00
378.05	3252.00
378.51	3249.00
378.98	3253.00
379.45	3222.00
379.92	3281.00
380.39	3314.00
380.86	3295.00
381.33	3318.00
381.79	3306.00
382.26	3197.00
382.73	3278.00
383.20	3251.00
383.67	3287.00
384.14	3270.00
384.60	3448.00
385.07	3267.00
385.54	3251.00
386.01	3220.00
386.48	3315.00
386.94	3222.00
387.41	3212.00
387.88	3295.00
388.35	3231.00
388.82	3280.00
389.28	3225.00
389.75	3311.00
390.22	3292.00
390.69	3271.00
391.16	3287.00
391.62	3234.00
392.09	3254.00
392.56	3198.00
393.03	3235.00
393.50	3369.00
393.96	3238.00
394.43	3289.00
394.90	3217.00
395.37	3309.00
395.83	3432.00
396.30	3201.00
396.77	3274.00
397.24	3270.00
397.70	3239.00
398.17	3256.00
398.64	3238.00
399.11	3246.00
399.57	3309.00
400.04	3242.00
400.51	3252.00
400.98	3275.00
401.44	3319.00
401.91	3294.00
402.38	3321.00
402.84	3251.00
403.31	3325.00
403.78	3269.00
404.25	3335.00
404.71	3347.00
405.18	3337.00
405.65	3250.00
406.12	3329.00
406.58	3307.00
407.05	3373.00
407.52	3311.00
407.98	3942.00
408.45	3282.00
408.92	3232.00
409.38	3382.00
409.85	3256.00
410.32	3335.00
410.78	3278.00
411.25	3333.00
411.72	3339.00
412.18	3257.00
412.65	3347.00
413.12	3291.00
413.59	3322.00
414.05	3312.00
414.52	3349.00
414.98	3288.00
415.45	3369.00
415.92	3320.00
416.38	3352.00
416.85	3387.00
417.32	3361.00
417.78	3316.00
418.25	3323.00
418.72	3346.00
419.18	3348.00
419.65	3295.00
420.12	3348.00
420.58	3283.00
421.05	3311.00
421.51	3279.00
421.98	3304.00
422.45	3293.00
422.91	3316.00
423.38	3336.00
423.85	3339.00
424.31	3321.00
424.78	3349.00
425.24	3283.00
425.71	3390.00
426.18	3288.00
426.64	3376.00
427.11	3344.00
427.57	3346.00
428.04	3295.00
428.51	3324.00
428.97	3325.00
429.44	3311.00
429.90	3315.00
430.37	3419.00
430.83	3288.00
431.30	3290.00
431.77	3340.00
432.23	3352.00
432.70	3330.00
433.16	3289.00
433.63	3335.00
434.09	3300.00
434.56	3328.00
435.03	3277.00
435.49	3357.00
435.96	3344.00
436.42	3286.00
436.89	3363.00
437.35	3350.00
437.82	3327.00
438.28	3301.00
438.75	3321.00
439.21	3453.00
439.68	3348.00
440.14	3377.00
440.61	3373.00
441.07	3351.00
441.54	3367.00
442.00	3473.00
442.47	3290.00
442.94	3315.00
443.40	3383.00
443.87	3294.00
444.33	3424.00
444.80	3380.00
445.26	3354.00
445.73	3337.00
446.19	3375.00
446.65	3341.00
447.12	3380.00
447.58	3329.00
448.05	3389.00
448.51	3366.00
448.98	3350.00
449.44	3343.00
449.91	3348.00
450.37	3337.00
450.84	3404.00
451.30	3382.00
451.77	3385.00
452.23	3332.00
452.70	3395.00
453.16	3380.00
453.62	3351.00
454.09	3352.00
454.55	3366.00
455.02	3366.00
455.48	3340.00
455.95	3369.00
456.41	3371.00
456.88	3428.00
457.34	3359.00
457.80	3359.00
458.27	3289.00
458.73	3346.00
459.20	3375.00
459.66	3369.00
460.13	3324.00
460.59	3288.00
461.05	3369.00
461.52	3331.00
461.98	3296.00
462.45	3288.00
462.91	3356.00
463.37	3267.00
463.84	3321.00
464.30	3292.00
464.76	3294.00
465.23	3273.00
465.69	3332.00
466.16	3295.00
466.62	3275.00
467.08	3267.00
467.55	3254.00
468.01	3254.00
468.48	3282.00
468.94	3276.00
469.40	3232.00
469.87	3258.00
470.33	3274.00
470.79	3267.00
471.26	3229.00
471.72	3233.00
472.18	3208.00
472.65	3257.00
473.11	3278.00
473.57	3262.00
474.04	3209.00
474.50	3253.00
474.96	3187.00
475.43	3282.00
475.89	3235.00
476.35	3255.00
476.82	3259.00
477.28	3236.00
477.74	3281.00
478.21	3207.00
478.67	3253.00
479.13	3218.00
479.59	3328.00
480.06	3255.00
480.52	3244.00
480.98	3178.00
481.45	3218.00
481.91	3219.00
482.37	3173.00
482.84	3224.00
483.30	3214.00
483.76	3242.00
484.22	3275.00
484.69	3233.00
485.15	3200.00
485.61	3139.00
486.07	3164.00
486.54	3151.00
487.00	3204.00
487.46	3157.00
487.92	3143.00
488.39	3231.00
488.85	3205.00
489.31	3212.00
489.77	3262.00
490.24	3186.00
490.70	3211.00
491.16	3193.00
491.62	3184.00
492.09	3183.00
492.55	3302.00
493.01	3255.00
493.47	3203.00
493.94	3233.00
494.40	3239.00
494.86	3227.00
495.32	3232.00
495.78	3248.00
496.25	3233.00
496.71	3276.00
497.17	3385.00
497.63	3331.00
498.09	3213.00
498.56	3308.00
499.02	3299.00
499.48	3402.00
499.94	3286.00
500.40	3307.00
500.87	3322.00
501.33	3286.00
501.79	3381.00
502.25	3337.00
502.71	3566.00
503.17	3331.00
503.64	3390.00
504.10	3371.00
504.56	3417.00
505.02	3438.00
505.48	3435.00
505.94	3457.00
506.40	3503.00
506.87	3470.00
507.33	3515.00
507.79	3521.00
508.25	3510.00
508.71	3553.00
509.17	3517.00
509.63	3572.00
510.10	3619.00
510.56	3620.00
511.02	3718.00
511.48	3742.00
511.94	3716.00
512.40	3661.00
512.86	3711.00
513.32	3783.00
513.78	3723.00
514.25	3824.00
514.71	4406.00
515.17	3818.00
515.63	3948.00
516.09	3974.00
516.55	3909.00
517.01	3994.00
517.47	3952.00
517.93	4006.00
518.39	4147.00
518.85	4137.00
519.32	4178.00
519.78	4237.00
520.24	4187.00
520.70	4295.00
521.16	4417.00
521.62	4411.00
522.08	4354.00
522.54	4444.00
523.00	4551.00
523.46	4575.00
523.92	4578.00
524.38	4736.00
524.84	4722.00
525.30	4693.00
525.76	4721.00
526.22	4618.00
526.68	4567.00
527.14	4740.00
527.60	4729.00
528.06	4901.00
528.52	4911.00
528.98	4992.00
529.44	4890.00
529.90	5025.00
530.36	5045.00
530.82	5030.00
531.28	5096.00
531.74	5034.00
532.20	5044.00
532.66	4928.00
533.12	5059.00
533.58	5069.00
534.04	5061.00
534.50	5124.00
534.96	5198.00
535.42	5251.00
535.88	5231.00
536.34	5167.00
536.80	5082.00
537.26	5197.00
537.72	5210.00
538.18	5236.00
538.64	5256.00
539.10	5191.00
539.56	5361.00
540.02	5155.00
540.48	5113.00
540.94	5164.00
541.40	5147.00
541.86	5197.00
542.32	5214.00
542.78	5198.00
543.24	5362.00
543.69	5208.00
544.15	5360.00
544.61	5261.00
545.07	5208.00
545.53	5242.00
545.99	5257.00
546.45	5187.00
546.91	5263.00
547.37	5239.00
547.83	5266.00
548.29	5240.00
548.74	5248.00
549.20	5230.00
549.66	5365.00
550.12	5272.00
550.58	5246.00
551.04	5260.00
551.50	5318.00
551.96	5398.00
552.42	5292.00
552.87	5261.00
553.33	5291.00
553.79	5276.00
554.25	5301.00
554.71	5332.00
555.17	5240.00
555.63	5354.00
556.08	5292.00
556.54	5290.00
557.00	5180.00
557.46	5233.00
557.92	5247.00
558.38	5081.00
558.83	5043.00
559.29	5044.00
559.75	5071.00
560.21	5046.00
560.67	5115.00
561.13	5099.00
561.58	5010.00
562.04	5020.00
562.50	5059.00
562.96	5009.00
563.42	5027.00
563.87	4972.00
564.33	4973.00
564.79	4972.00
565.25	4914.00
565.71	4854.00
566.16	4900.00
566.62	4810.00
567.08	4795.00
567.54	4888.00
568.00	4797.00
568.45	4736.00
568.91	4759.00
569.37	4736.00
569.83	4741.00
570.28	4652.00
570.74	4597.00
571.20	4624.00
571.66	4611.00
572.11	4614.00
572.57	4616.00
573.03	4545.00
573.49	4525.00
573.94	4512.00
574.40	4577.00
574.86	4495.00
575.32	4394.00
575.77	4431.00
576.23	4349.00
576.69	4464.00
577.15	4365.00
577.60	4392.00
578.06	4291.00
578.52	4353.00
578.97	4344.00
579.43	4254.00
579.89	4369.00
580.34	4274.00
580.80	4239.00
581.26	4328.00
581.72	4361.00
582.17	4247.00
582.63	4219.00
583.09	4293.00
583.54	4295.00
584.00	4210.00
584.46	4224.00
584.91	4175.00
585.37	4298.00
585.83	4182.00
586.28	4202.00
586.74	4168.00
587.20	4157.00
587.65	4204.00
588.11	4092.00
588.57	4082.00
589.02	3986.00
589.48	3976.00
589.94	4009.00
590.39	4051.00
590.85	4052.00
591.30	4048.00
591.76	4089.00
592.22	4019.00
592.67	4077.00
593.13	4025.00
593.59	4045.00
594.04	3990.00
594.50	4008.00
594.95	4061.00
595.41	3985.00
595.87	3999.00
596.32	4054.00
596.78	4023.00
597.23	4043.00
597.69	3998.00
598.15	3976.00
598.60	3968.00
599.06	4038.00
599.51	3948.00
599.97	4041.00
600.43	4058.00
600.88	3990.00
601.34	3997.00
601.79	3934.00
602.25	4082.00
602.70	4009.00
603.16	3981.00
603.61	3936.00
604.07	3926.00
604.53	4003.00
604.98	3912.00
605.44	3916.00
605.89	3938.00
606.35	3896.00
606.80	3878.00
607.26	3907.00
607.71	3850.00
608.17	3899.00
608.62	3868.00
609.08	3966.00
609.53	3883.00
609.99	3843.00
610.44	3763.00
610.90	3826.00
611.35	3791.00
611.81	3886.00
612.26	3817.00
612.72	3809.00
613.17	3888.00
613.63	3710.00
614.08	3707.00
614.54	3692.00
614.99	3729.00
615.45	3701.00
615.90	3708.00
616.36	3711.00
616.81	3642.00
617.27	3705.00
617.72	3720.00
618.18	3699.00
618.63	3678.00
619.09	3673.00
619.54	3716.00
619.99	3725.00
620.45	3728.00
620.90	3714.00
621.36	3665.00
621.81	3745.00
622.27	3719.00
622.72	3710.00
623.18	3643.00
623.63	3607.00
624.08	3698.00
624.54	3589.00
624.99	3599.00
625.45	3615.00
625.90	3573.00
626.35	3590.00
626.81	3639.00
627.26	3618.00
627.72	3655.00
628.17	3617.00
628.62	3541.00
629.08	3616.00
629.53	3636.00
629.99	3594.00
630.44	3568.00
630.89	3609.00
631.35	3621.00
631.80	3617.00
632.26	3613.00
632.71	3587.00
633.16	3591.00
633.62	3578.00
634.07	3551.00
634.52	3539.00
634.98	3577.00
635.43	3537.00
635.88	3578.00
636.34	3585.00
636.79	3548.00
637.24	3540.00
637.70	3560.00
638.15	3599.00
638.60	3513.00
639.06	3477.00
639.51	3462.00
639.96	3465.00
640.42	3515.00
640.87	3497.00
641.32	3436.00
641.78	3454.00
642.23	3480.00
642.68	3430.00
643.14	3434.00
643.59	3438.00
644.04	3368.00
644.49	3403.00
644.95	3352.00
645.40	3348.00
645.85	3383.00
646.31	3366.00
646.76	3386.00
647.21	3357.00
647.66	3332.00
648.12	3359.00
648.57	3277.00
649.02	3342.00
649.47	3296.00
649.93	3425.00
650.38	3275.00
650.83	3279.00
651.28	3298.00
651.74	3287.00
652.19	3279.00
652.64	3275.00
653.09	3256.00
653.55	3275.00
654.00	3288.00
654.45	3275.00
654.90	3269.00
655.35	3197.00
655.81	3269.00
656.26	3167.00
656.71	3218.00
657.16	3238.00
657.62	3270.00
658.07	3192.00
658.52	3256.00
658.97	3201.00
659.42	3390.00
659.88	3205.00
660.33	3279.00
660.78	3215.00
661.23	3183.00
661.68	3181.00
662.13	3180.00
662.59	3118.00
663.04	3199.00
663.49	3154.00
663.94	3190.00
664.39	3152.00
664.84	3133.00
665.30	3149.00
665.75	3150.00
666.20	3149.00
666.65	3146.00
667.10	3264.00
667.55	3201.00
668.00	3108.00
668.46	3155.00
668.91	3106.00
669.36	3236.00
669.81	3079.00
670.26	3090.00
670.71	3215.00
671.16	3099.00
671.61	3179.00
672.06	3235.00
672.52	3126.00
672.97	3134.00
673.42	3166.00
673.87	3222.00
674.32	3115.00
674.77	3117.00
675.22	3061.00
675.67	3077.00
676.12	3104.00
676.57	3123.00
677.02	3071.00
677.47	3120.00
677.93	3211.00
678.38	3102.00
678.83	3097.00
679.28	3101.00
679.73	3094.00
680.18	3121.00
680.63	3132.00
681.08	3060.00
681.53	3063.00
681.98	3101.00
682.43	3114.00
682.88	3134.00
683.33	3138.00
683.78	3152.00
684.23	3209.00
684.68	3177.00
685.13	3197.00
685.58	3197.00
686.03	3190.00
686.48	3155.00
686.93	3159.00
687.38	3170.00
687.83	3173.00
688.28	3205.00
688.73	3369.00
689.18	3311.00
689.63	3258.00
690.08	3292.00
690.53	3321.00
690.98	3342.00
691.43	3421.00
691.88	3370.00
692.33	3499.00
692.78	3450.00
693.23	3599.00
693.68	3620.00
694.13	3644.00
694.58	3672.00
695.03	3912.00
695.48	3834.00
695.93	3874.00
696.38	4056.00
696.83	4016.00
697.28	4002.00
697.72	4073.00
698.17	4119.00
698.62	4225.00
699.07	4263.00
699.52	4293.00
699.97	4351.00
700.42	4395.00
700.87	4494.00
701.32	4660.00
701.77	4543.00
702.22	4680.00
702.67	4694.00
703.11	4748.00
703.56	4897.00
704.01	4944.00
704.46	5046.00
704.91	5156.00
705.36	5108.00
705.81	5223.00
706.26	5231.00
706.70	5344.00
707.15	5387.00
707.60	5447.00
708.05	5540.00
708.50	5590.00
708.95	5638.00
709.40	5748.00
709.84	5807.00
710.29	5776.00
710.74	5854.00
711.19	5944.00
711.64	6035.00
712.09	6047.00
712.53	6095.00
712.98	6233.00
713.43	6217.00
713.88	6317.00
714.33	6363.00
714.78	6361.00
715.22	6294.00
715.67	6396.00
716.12	6317.00
716.57	6237.00
717.02	6021.00
717.46	6003.00
717.91	5997.00
718.36	5934.00
718.81	5804.00
719.26	5933.00
719.70	5985.00
720.15	6057.00
720.60	6213.00
721.05	6458.00
721.49	6770.00
721.94	6963.00
722.39	6975.00
722.84	6799.00
723.28	6650.00
723.73	6649.00
724.18	6531.00
724.63	6740.00
725.07	6775.00
725.52	6859.00
725.97	6914.00
726.42	6988.00
726.86	7186.00
727.31	7063.00
727.76	7076.00
728.21	7230.00
728.65	7185.00
729.10	7174.00
729.55	7304.00
729.99	7441.00
730.44	7526.00
730.89	7622.00
731.33	7621.00
731.78	7868.00
732.23	8035.00
732.68	8086.00
733.12	8168.00
733.57	8403.00
734.02	8466.00
734.46	8570.00
734.91	8573.00
735.36	8568.00
735.80	8738.00
736.25	8700.00
736.70	8805.00
737.14	8943.00
737.59	8986.00
738.04	8982.00
738.48	8816.00
738.93	8982.00
739.37	8943.00
739.82	9180.00
740.27	9269.00
740.71	9157.00
741.16	9201.00
741.61	9150.00
742.05	9246.00
742.50	9327.00
742.94	9399.00
743.39	9353.00
743.84	9388.00
744.28	9532.00
744.73	9502.00
745.18	9643.00
745.62	9609.00
746.07	9601.00
746.51	9586.00
746.96	9624.00
747.40	9560.00
747.85	9596.00
748.30	9549.00
748.74	9493.00
749.19	9597.00
749.63	9610.00
750.08	9636.00
750.52	9694.00
750.97	9578.00
751.42	9559.00
751.86	9546.00
752.31	9643.00
752.75	9613.00
753.20	9530.00
753.64	9581.00
754.09	9542.00
754.53	9664.00
754.98	9588.00
755.42	9579.00
755.87	9606.00
756.31	9503.00
756.76	9501.00
757.20	9431.00
757.65	9430.00
758.09	9292.00
758.54	9096.00
758.98	8474.00
759.43	7155.00
759.87	5814.00
760.32	4911.00
760.76	4744.00
761.21	5222.00
761.65	6011.00
762.10	6218.00
762.54	6130.00
762.99	5816.00
763.43	5855.00
763.88	6090.00
764.32	6366.00
764.77	6770.00
765.21	7103.00
765.66	7475.00
766.10	7816.00
766.54	8088.00
766.99	8341.00
767.43	8636.00
767.88	8799.00
768.32	9008.00
768.77	9052.00
769.21	9255.00
769.66	9200.00
770.10	9367.00
770.54	9323.00
770.99	9284.00
771.43	9307.00
771.88	9336.00
772.32	9390.00
772.76	9266.00
773.21	9415.00
773.65	9362.00
774.10	9178.00
774.54	9153.00
774.98	9309.00
775.43	9370.00
775.87	9553.00
776.31	9499.00
776.76	9402.00
777.20	9415.00
777.65	9386.00
778.09	9320.00
778.53	9201.00
778.98	9288.00
779.42	9382.00
779.86	9286.00
780.31	9309.00
780.75	9225.00
781.19	9288.00
781.64	9240.00
782.08	9388.00
782.52	9351.00
782.97	9246.00
783.41	9129.00
783.85	9093.00
784.30	8987.00
784.74	9044.00
785.18	9011.00
785.63	8979.00
786.07	9055.00
786.51	9064.00
786.95	9147.00
787.40	9040.00
787.84	8880.00
788.28	8938.00
788.73	9022.00
789.17	8749.00
789.61	8725.00
790.05	8693.00
790.50	8611.00
790.94	8669.00
791.38	8583.00
791.82	8691.00
792.27	8715.00
792.71	8673.00
793.15	8848.00
793.59	8789.00
794.04	8621.00
794.48	8606.00
794.92	8518.00
795.36	8527.00
795.81	8457.00
796.25	8385.00
796.69	8384.00
797.13	8575.00
797.57	8548.00
798.02	8687.00
798.46	8597.00
798.90	8672.00
799.34	8534.00
799.79	8523.00
800.23	8334.00
800.67	8304.00
801.11	8297.00
801.55	8242.00
801.99	8232.00
802.44	8254.00
802.88	8430.00
803.32	8369.00
803.76	8466.00
804.20	8367.00
804.64	8287.00
805.09	8443.00
805.53	8509.00
805.97	8383.00
806.41	8280.00
806.85	8360.00
807.29	8170.00
807.74	8053.00
808.18	8153.00
808.62	8102.00
809.06	8063.00
809.50	8130.00
809.94	8054.00
810.38	8215.00
810.82	8130.00
811.27	8251.00
811.71	7997.00
812.15	7801.00
812.59	7711.00
813.03	7567.00
813.47	7412.00
813.91	7218.00
814.35	7193.00
814.79	7140.00
815.23	7055.00
815.67	7019.00
816.12	7051.00
816.56	7033.00
817.00	7053.00
817.44	7099.00
817.88	7086.00
818.32	6831.00
818.76	7067.00
819.20	6972.00
819.64	6999.00
820.08	7134.00
820.52	7251.00
820.96	7443.00
821.40	7295.00
821.84	7183.00
822.28	6826.00
822.72	6844.00
823.16	6687.00
823.60	6880.00
824.04	7285.00
824.48	7322.00
824.92	7467.00
825.36	7473.00
825.80	7242.00
826.24	7215.00
826.68	7243.00
827.12	7282.00
827.56	7151.00
828.00	7236.00
828.44	7097.00
828.88	7192.00
829.32	7301.00
829.76	7230.00
830.20	7367.00
830.64	7330.00
831.08	7366.00
831.52	7237.00
831.96	7175.00
832.40	7055.00
832.84	7167.00
833.28	7292.00
833.72	7321.00
834.16	7441.00
834.60	7505.00
835.04	7521.00
835.48	7634.00
835.91	7601.00
836.35	7546.00
836.79	7474.00
837.23	7517.00
837.67	7391.00
838.11	7385.00
838.55	7388.00
838.99	7443.00
839.43	7631.00
839.87	7609.00
840.30	7671.00
840.74	7752.00
841.18	7627.00
841.62	7720.00
842.06	7685.00
842.50	7671.00
842.94	7677.00
843.38	7518.00
843.81	7492.00
844.25	7398.00
844.69	7405.00
845.13	7408.00
845.57	7386.00
846.01	7539.00
846.45	7504.00
846.88	7474.00
847.32	7660.00
847.76	7698.00
848.20	7794.00
848.64	7604.00
849.08	7516.00
849.51	7540.00
849.95	7402.00
850.39	7367.00
850.83	7454.00
851.27	7398.00
851.70	7299.00
852.14	7294.00
852.58	7260.00
853.02	7107.00
853.46	6967.00
853.89	6917.00
854.33	6972.00
854.77	7111.00
855.21	7376.00
855.65	7570.00
856.08	7728.00
856.52	7687.00
856.96	7546.00
857.40	7446.00
857.83	7342.00
858.27	7299.00
858.71	7223.00
859.15	7233.00
859.58	7251.00
860.02	7337.00
860.46	7420.00
860.89	7543.00
861.33	7538.00
861.77	7534.00
862.21	7603.00
862.64	7662.00
863.08	7589.00
863.52	7597.00
863.95	7417.00
864.39	7329.00
864.83	7136.00
865.27	6922.00
865.70	6908.00
866.14	6801.00
866.58	6826.00
867.01	7061.00
867.45	7355.00
867.89	7340.00
868.32	7466.00
868.76	7485.00
869.20	7535.00
869.63	7585.00
870.07	7499.00
870.51	7284.00
870.94	7170.00
871.38	7060.00
871.82	6950.00
872.25	7011.00
872.69	7031.00
873.13	7018.00
873.56	7170.00
874.00	7107.00
874.43	7260.00
874.87	7227.00
875.31	7477.00
875.74	7296.00
876.18	7412.00
876.61	7418.00
877.05	7291.00
877.49	7284.00
877.92	7071.00
878.36	7075.00
878.79	7005.00
879.23	6998.00
879.67	6860.00
880.10	6865.00
880.54	6809.00
880.97	6899.00
881.41	7117.00
881.84	7179.00
882.28	7211.00
882.72	7259.00
883.15	7432.00
883.59	7310.00
884.02	7411.00
884.46	7304.00
884.89	7163.00
885.33	7146.00
885.76	6944.00
886.20	6782.00
886.63	6852.00
887.07	6726.00
887.50	6778.00
887.94	6848.00
888.37	6775.00
888.81	7083.00
889.24	6940.00
889.68	7021.00
890.11	7100.00
890.55	7147.00
890.98	7174.00
891.42	7195.00
891.85	7148.00
892.29	7108.00
892.72	6889.00
893.16	6823.00
893.59	6699.00
894.03	6579.00
894.46	6381.00
894.90	6256.00
895.33	6088.00
895.77	6104.00
896.20	6087.00
896.63	6020.00
897.07	6120.00
897.50	6063.00
897.94	6042.00
898.37	6244.00
898.81	6000.00
899.24	5914.00
899.68	6150.00
900.11	6047.00
900.54	5938.00
900.98	5865.00
901.41	5966.00
901.85	5983.00
902.28	5891.00
902.71	5933.00
903.15	6187.00
903.58	6203.00
904.02	6252.00
904.45	6220.00
904.88	6229.00
905.32	6160.00
905.75	6217.00
906.18	6069.00
906.62	6108.00
907.05	5992.00
907.48	5947.00
907.92	5956.00
908.35	5957.00
908.79	5862.00
909.22	5748.00
909.65	5805.00
910.09	5814.00
910.52	5914.00
910.95	5700.00
911.38	5847.00
911.82	5714.00
912.25	5722.00
912.68	5850.00
913.12	5791.00
913.55	5771.00
913.98	5896.00
914.42	5928.00
914.85	6068.00
915.28	5848.00
915.72	5856.00
916.15	5726.00
916.58	5800.00
917.01	5670.00
917.45	5638.00
917.88	5670.00
918.31	5809.00
918.74	5870.00
919.18	6041.00
919.61	6032.00
920.04	6098.00
920.47	6174.00
920.91	6171.00
921.34	6119.00
921.77	6097.00
922.20	6136.00
922.64	6174.00
923.07	6144.00
923.50	6090.00
923.93	6021.00
924.37	5983.00
924.80	5899.00
925.23	5885.00
925.66	5835.00
926.09	5593.00
926.53	5518.00
926.96	5359.00
927.39	5349.00
927.82	5126.00
928.25	4981.00
928.69	4999.00
929.12	4988.00
929.55	4828.00
929.98	4788.00
930.41	4601.00
930.84	4457.00
931.28	4296.00
931.71	4255.00
932.14	4040.00
932.57	4050.00
933.00	3879.00
933.43	3914.00
933.86	3819.00
934.30	3718.00
934.73	3880.00
935.16	3813.00
935.59	3711.00
936.02	3787.00
936.45	3775.00
936.88	3715.00
937.31	3878.00
937.75	3901.00
938.18	3999.00
938.61	4124.00
939.04	4128.00
939.47	4146.00
939.90	4071.00
940.33	4030.00
940.76	3876.00
941.19	3832.00
941.62	3795.00
942.05	3746.00
942.48	3711.00
942.91	3596.00
943.35	3699.00
943.78	3698.00
944.21	3624.00
944.64	3740.00
945.07	3716.00
945.50	3759.00
945.93	3749.00
946.36	3850.00
946.79	3834.00
947.22	3927.00
947.65	3901.00
948.08	3757.00
948.51	3847.00
948.94	3919.00
949.37	3934.00
949.80	3911.00
950.23	3798.00
950.66	3940.00
951.09	3864.00
951.52	3801.00
951.95	3868.00
952.38	3866.00
952.81	4054.00
953.24	4031.00
953.67	4077.00
954.10	4027.00
954.53	4061.00
954.96	4058.00
955.39	4129.00
955.82	4193.00
956.25	4206.00
956.68	4342.00
957.11	4176.00
957.53	4177.00
957.96	4182.00
958.39	4098.00
958.82	4033.00
959.25	4091.00
959.68	4114.00
960.11	4261.00
960.54	4272.00
960.97	4335.00
961.40	4431.00
961.83	4392.00
962.26	4355.00
962.68	4588.00
963.11	4594.00
963.54	4606.00
963.97	4635.00
964.40	4560.00
964.83	4688.00
965.26	4644.00
965.69	4686.00
966.11	4621.00
966.54	4590.00
966.97	4717.00
967.40	4818.00
967.83	4949.00
968.26	4846.00
968.69	4813.00
969.11	4834.00
969.54	4768.00
969.97	4803.00
970.40	4920.00
970.83	4852.00
971.26	4912.00
971.68	4923.00
972.11	4888.00
972.54	4941.00
972.97	4899.00
973.40	4899.00
973.82	4932.00
974.25	4905.00
974.68	4837.00
975.11	4811.00
975.54	4717.00
975.96	4727.00
976.39	4748.00
976.82	4827.00
977.25	4730.00
977.67	4694.00
978.10	4736.00
978.53	4756.00
978.96	4870.00
979.38	4902.00
979.81	4887.00
980.24	4985.00
980.67	5055.00
981.09	5145.00
981.52	5086.00
981.95	5076.00
982.38	5056.00
982.80	5116.00
983.23	5201.00
983.66	5193.00
984.08	5119.00
984.51	5028.00
984.94	5105.00
985.37	5030.00
985.79	5035.00
986.22	4926.00
986.65	4968.00
987.07	4944.00
987.50	4916.00
987.93	4883.00
988.35	4945.00
988.78	4951.00
989.21	4976.00
989.63	4931.00
990.06	5072.00
990.49	5062.00
990.91	5150.00
991.34	5168.00
991.77	5125.00
992.19	5064.00
992.62	5137.00
993.05	5065.00
993.47	5153.00
993.90	5064.00
994.32	5048.00
994.75	4968.00
995.18	4915.00
995.60	4873.00
996.03	4867.00
996.45	4906.00
996.88	4870.00
997.31	4818.00
997.73	4824.00
998.16	4827.00
998.58	4952.00
999.01	4858.00
999.44	4946.00
999.86	5061.00
1000.29	4897.00
1000.71	4975.00
1001.14	4975.00
1001.56	4996.00
1001.99	4925.00
1002.41	4917.00
1002.84	4821.00
1003.27	4787.00
1003.69	4782.00
1004.12	4753.00
1004.54	4760.00
1004.97	4619.00
1005.39	4577.00
1005.82	4672.00
1006.24	4650.00
1006.67	4601.00
1007.09	4584.00
1007.52	4586.00
1007.94	4619.00
1008.37	4758.00
1008.79	4615.00
1009.22	4683.00
1009.64	4626.00
1010.07	4679.00
1010.49	4738.00
1010.92	4596.00
1011.34	4728.00
1011.77	4628.00
1012.19	4608.00
1012.62	4607.00
1013.04	4576.00
1013.46	4589.00
1013.89	4499.00
1014.31	4497.00
1014.74	4420.00
1015.16	4391.00
1015.59	4426.00
1016.01	4456.00
1016.44	4431.00
1016.86	5362.00
1017.28	4391.00
1017.71	4407.00
1018.13	4669.00
1018.56	4531.00
1018.98	4565.00
1019.40	4498.00
1019.83	4588.00
1020.25	4556.00
1020.68	4592.00
1021.10	4621.00
1021.52	4588.00
1021.95	4751.00
1022.37	4637.00
1022.79	4619.00
1023.22	4607.00
1023.64	4584.00
1024.07	4527.00
1024.49	4531.00
1024.91	4450.00
1025.34	4428.00
1025.76	4530.00
1026.18	4443.00
1026.61	4463.00
1027.03	4400.00
1027.45	4432.00
1027.88	4453.00
1028.30	4529.00
1028.72	4429.00
1029.15	4445.00
1029.57	4475.00
1029.99	4541.00
1030.41	4431.00
1030.84	4471.00
1031.26	4438.00
1031.68	4419.00
1032.11	4448.00
1032.53	4397.00
1032.95	4351.00
1033.37	4268.00
1033.80	4329.00
1034.22	4274.00
1034.64	4345.00
1035.06	4194.00
1035.49	4203.00
1035.91	4205.00
1036.33	4182.00
1036.75	4146.00
1037.18	4241.00
1037.60	4189.00
1038.02	4182.00
1038.44	4216.00
1038.87	4143.00
1039.29	4179.00
1039.71	4212.00
1040.13	4157.00
1040.55	4230.00
1040.98	4221.00
1041.40	4163.00
1041.82	4148.00
1042.24	4166.00
1042.66	4136.00
1043.09	4021.00
1043.51	4087.00
1043.93	4006.00
1044.35	3999.00
1044.77	4023.00
1045.20	3997.00
1045.62	3915.00
1046.04	3955.00
1046.46	3961.00
1046.88	3905.00
1047.30	3944.00
1047.72	3920.00
1048.15	3926.00
1048.57	3857.00
1048.99	3865.00
1049.41	3946.00
1049.83	3899.00
1050.25	3937.00
1050.67	3900.00
1051.09	3874.00
1051.52	3875.00
1051.94	3827.00
1052.36	3826.00
1052.78	3793.00
1053.20	3812.00
1053.62	3816.00
1054.04	3851.00
1054.46	3842.00
1054.88	3853.00
1055.30	3804.00
1055.72	3806.00
1056.14	3751.00
1056.57	3917.00
1056.99	3672.00
1057.41	3709.00
1057.83	3736.00
1058.25	3663.00
1058.67	3646.00
1059.09	3636.00
1059.51	3673.00
1059.93	3651.00
1060.35	3638.00
1060.77	3659.00
1061.19	3685.00
1061.61	3634.00
1062.03	3634.00
1062.45	3552.00
1062.87	3643.00
1063.29	3626.00
1063.71	3594.00
1064.13	3551.00
1064.55	3553.00
1064.97	3611.00
1065.39	3587.00
1065.81	3558.00
1066.23	3581.00
1066.65	3538.00
1067.07	3552.00
1067.49	3560.00
1067.91	3490.00
1068.33	3441.00
1068.75	3535.00
1069.17	3516.00
1069.59	3515.00
1070.00	3429.00
1070.42	3517.00
1070.84	3464.00
1071.26	3425.00
1071.68	3393.00
1072.10	3460.00
1072.52	3433.00
1072.94	3413.00
1073.36	3416.00
1073.78	3387.00
1074.20	3413.00
1074.62	3437.00
1075.03	3437.00
1075.45	3431.00
1075.87	3450.00
1076.29	3419.00
1076.71	3433.00
1077.13	3439.00
1077.55	3338.00
1077.97	3376.00
1078.38	3374.00
1078.80	3411.00
1079.22	3404.00
1079.64	3371.00
1080.06	3367.00
1080.48	3371.00
1080.89	3350.00
1081.31	3320.00
1081.73	3373.00
1082.15	3303.00
1082.57	3339.00
1082.99	3352.00
1083.40	3287.00
1083.82	3426.00
1084.24	3252.00
1084.66	3296.00
1085.08	3316.00
1085.49	3235.00
1085.91	3326.00
1086.33	4312.00
1086.75	3284.00
1087.17	3258.00
1087.58	3293.00
1088.00	3274.00
1088.42	3341.00
1088.84	3267.00
1089.25	3219.00
1089.67	3267.00
1090.09	3224.00
1090.51	3240.00
1090.92	3248.00
1091.34	3230.00
1091.76	3218.00
1092.18	3200.00
1092.59	3182.00
1093.01	3203.00
1093.43	3206.00
1093.84	3199.00
1094.26	3193.00
1094.68	3224.00
1095.10	3170.00
1095.51	3177.00
1095.93	3179.00
1096.35	3205.00
1096.76	3183.00
1097.18	3212.00
1097.60	3132.00
1098.01	3180.00
1098.43	3159.00
1098.85	3123.00
1099.26	3115.00
1099.68	3151.00
1100.10	3105.00
1100.51	3114.00
1100.93	3109.00
1101.35	3090.00
1101.76	3150.00
1102.18	3503.00
1102.60	3145.00
1103.01	3077.00
1103.43	3108.00
1103.84	3111.00
1104.26	3072.00
1104.68	3105.00
1105.09	3018.00
1105.51	3073.00
1105.92	3151.00
1106.34	3063.00
1106.76	3086.00
1107.17	3051.00
1107.59	3057.00
1108.00	2989.00
1108.42	3035.00
1108.83	2985.00
1109.25	3028.00
1109.67	2968.00
1110.08	3029.00
1110.50	2977.00
1110.91	3013.00
1111.33	2981.00
1111.74	3019.00
1112.16	3031.00
1112.57	3021.00
1112.99	2991.00
1113.41	2997.00
1113.82	2996.00
1114.24	2980.00
1114.65	2956.00
1115.07	2930.00
1115.48	2847.00
1115.90	2185.00
1116.31	2202.00
1116.73	2202.00
1117.14	2203.00
>>>>>End Processed Spectral Data<<<<<
