SpectraSuite Data File
++++++++++++++++++++++++++++++++++++
Date: Tue May 29 13:11:17 EEST 2018
User: CanSEE
Dark Spectrum Present: No
Reference Spectrum Present: No
Number of Sampled Component Spectra: 1
Spectrometers: MAYP11278
Integration Time (usec): 230000 (MAYP11278)
Spectra Averaged: 1 (MAYP11278)
Boxcar Smoothing: 0 (MAYP11278)
Correct for Electrical Dark: No (MAYP11278)
Strobe/Lamp Enabled: No (MAYP11278)
Correct for Detector Non-linearity: No (MAYP11278)
Correct for Stray Light: No (MAYP11278)
Number of Pixels in Processed Spectrum: 2068
>>>>>Begin Processed Spectral Data<<<<<
187.82	2343.00
188.30	2240.00
188.78	2215.00
189.26	2211.00
189.73	3223.00
190.21	3418.00
190.69	3564.00
191.17	3559.00
191.64	3597.00
192.12	3544.00
192.60	3556.00
193.07	3560.00
193.55	3601.00
194.03	3612.00
194.51	3609.00
194.98	3583.00
195.46	3602.00
195.94	3529.00
196.42	3551.00
196.89	3667.00
197.37	3557.00
197.85	3540.00
198.32	3565.00
198.80	3578.00
199.28	3585.00
199.76	3569.00
200.23	3546.00
200.71	3592.00
201.19	3625.00
201.66	3597.00
202.14	3606.00
202.62	3549.00
203.09	3549.00
203.57	3543.00
204.05	3605.00
204.53	3611.00
205.00	3574.00
205.48	3571.00
205.96	3619.00
206.43	3583.00
206.91	3558.00
207.39	3683.00
207.86	3611.00
208.34	3603.00
208.82	3568.00
209.29	3591.00
209.77	3629.00
210.25	3579.00
210.72	3559.00
211.20	3577.00
211.68	3610.00
212.15	3555.00
212.63	3652.00
213.11	3625.00
213.58	3579.00
214.06	3652.00
214.53	3601.00
215.01	3663.00
215.49	3604.00
215.96	3610.00
216.44	3576.00
216.92	3616.00
217.39	3598.00
217.87	3597.00
218.35	3664.00
218.82	3507.00
219.30	3560.00
219.77	3538.00
220.25	3558.00
220.73	3673.00
221.20	3588.00
221.68	3641.00
222.15	3582.00
222.63	3657.00
223.11	3583.00
223.58	3607.00
224.06	3542.00
224.53	3577.00
225.01	3527.00
225.49	3509.00
225.96	3513.00
226.44	3541.00
226.91	3607.00
227.39	3575.00
227.87	3571.00
228.34	3585.00
228.82	3565.00
229.29	3581.00
229.77	3562.00
230.24	3541.00
230.72	3573.00
231.20	3592.00
231.67	3627.00
232.15	3577.00
232.62	3512.00
233.10	3596.00
233.57	3613.00
234.05	3765.00
234.53	3607.00
235.00	3540.00
235.48	3569.00
235.95	3612.00
236.43	3607.00
236.90	3673.00
237.38	3513.00
237.85	3601.00
238.33	3601.00
238.80	3570.00
239.28	3582.00
239.75	3528.00
240.23	3619.00
240.71	3627.00
241.18	3573.00
241.66	3563.00
242.13	3601.00
242.61	3638.00
243.08	3518.00
243.56	3590.00
244.03	3603.00
244.51	3639.00
244.98	3552.00
245.46	3669.00
245.93	4923.00
246.41	3515.00
246.88	3608.00
247.36	3591.00
247.83	3613.00
248.31	3629.00
248.78	3528.00
249.26	3605.00
249.73	3636.00
250.21	3644.00
250.68	3682.00
251.16	3566.00
251.63	3664.00
252.10	3660.00
252.58	3595.00
253.05	3601.00
253.53	3589.00
254.00	3602.00
254.48	3612.00
254.95	3663.00
255.43	3615.00
255.90	3567.00
256.38	3643.00
256.85	3634.00
257.33	3655.00
257.80	3762.00
258.27	3628.00
258.75	3585.00
259.22	3603.00
259.70	3603.00
260.17	3652.00
260.65	3642.00
261.12	3583.00
261.59	3661.00
262.07	3623.00
262.54	3621.00
263.02	3567.00
263.49	3581.00
263.97	3611.00
264.44	3648.00
264.91	3586.00
265.39	3603.00
265.86	3645.00
266.34	3657.00
266.81	3561.00
267.28	3609.00
267.76	3606.00
268.23	3649.00
268.71	3492.00
269.18	3547.00
269.65	3547.00
270.13	3579.00
270.60	3665.00
271.08	3592.00
271.55	3579.00
272.02	3543.00
272.50	3530.00
272.97	3522.00
273.44	3593.00
273.92	3717.00
274.39	3629.00
274.87	3645.00
275.34	3555.00
275.81	3593.00
276.29	3645.00
276.76	3574.00
277.23	3516.00
277.71	3518.00
278.18	3466.00
278.65	3671.00
279.13	3526.00
279.60	3596.00
280.07	3852.00
280.55	3804.00
281.02	3849.00
281.50	3698.00
281.97	3725.00
282.44	3669.00
282.91	3643.00
283.39	3678.00
283.86	3597.00
284.33	3604.00
284.81	3626.00
285.28	3626.00
285.75	3634.00
286.23	3640.00
286.70	3575.00
287.17	3676.00
287.65	3655.00
288.12	3663.00
288.59	3616.00
289.07	3531.00
289.54	3681.00
290.01	3573.00
290.48	3635.00
290.96	3592.00
291.43	3649.00
291.90	3715.00
292.38	3575.00
292.85	3641.00
293.32	3580.00
293.79	3659.00
294.27	3614.00
294.74	3593.00
295.21	3600.00
295.69	3647.00
296.16	3679.00
296.63	3658.00
297.10	3664.00
297.58	3630.00
298.05	3668.00
298.52	3587.00
298.99	3671.00
299.47	3600.00
299.94	3605.00
300.41	3608.00
300.88	3614.00
301.36	3651.00
301.83	3652.00
302.30	3574.00
302.77	3698.00
303.25	3717.00
303.72	3621.00
304.19	3608.00
304.66	3577.00
305.13	3586.00
305.61	3631.00
306.08	3612.00
306.55	3629.00
307.02	3607.00
307.49	3624.00
307.97	3615.00
308.44	3585.00
308.91	3647.00
309.38	3655.00
309.86	3672.00
310.33	3623.00
310.80	3647.00
311.27	3639.00
311.74	3685.00
312.21	3617.00
312.69	3729.00
313.16	3645.00
313.63	3601.00
314.10	3657.00
314.57	3592.00
315.05	3563.00
315.52	3637.00
315.99	3664.00
316.46	3621.00
316.93	3692.00
317.40	3603.00
317.88	3777.00
318.35	3632.00
318.82	3603.00
319.29	3556.00
319.76	3683.00
320.23	3694.00
320.70	3695.00
321.18	3647.00
321.65	3557.00
322.12	3575.00
322.59	3704.00
323.06	3641.00
323.53	3769.00
324.00	3583.00
324.48	3615.00
324.95	3639.00
325.42	3673.00
325.89	3623.00
326.36	3685.00
326.83	3693.00
327.30	3697.00
327.77	3693.00
328.24	3671.00
328.72	3661.00
329.19	3658.00
329.66	3668.00
330.13	3659.00
330.60	3749.00
331.07	3721.00
331.54	3752.00
332.01	3644.00
332.48	3756.00
332.95	3715.00
333.43	3735.00
333.90	3758.00
334.37	3703.00
334.84	3705.00
335.31	3819.00
335.78	3607.00
336.25	3655.00
336.72	3655.00
337.19	3651.00
337.66	3641.00
338.13	3648.00
338.60	3691.00
339.07	3644.00
339.54	3609.00
340.01	3566.00
340.49	3578.00
340.96	3609.00
341.43	3647.00
341.90	3556.00
342.37	3611.00
342.84	3645.00
343.31	3621.00
343.78	3555.00
344.25	3626.00
344.72	3579.00
345.19	3609.00
345.66	3633.00
346.13	3592.00
346.60	3549.00
347.07	3625.00
347.54	3566.00
348.01	3658.00
348.48	3609.00
348.95	3571.00
349.42	3632.00
349.89	3650.00
350.36	3550.00
350.83	3567.00
351.30	3601.00
351.77	3681.00
352.24	3601.00
352.71	3597.00
353.18	3581.00
353.65	3651.00
354.12	3625.00
354.59	3601.00
355.06	3609.00
355.53	3683.00
356.00	3582.00
356.47	3681.00
356.94	3577.00
357.41	3723.00
357.88	3637.00
358.35	3567.00
358.82	3588.00
359.28	3596.00
359.75	3607.00
360.22	3689.00
360.69	3667.00
361.16	3614.00
361.63	3589.00
362.10	3638.00
362.57	3565.00
363.04	3601.00
363.51	3724.00
363.98	3637.00
364.45	3625.00
364.92	3630.00
365.39	3610.00
365.86	3587.00
366.32	3651.00
366.79	3631.00
367.26	4814.00
367.73	3960.00
368.20	3613.00
368.67	3651.00
369.14	3601.00
369.61	3665.00
370.08	3645.00
370.55	3631.00
371.02	4483.00
371.48	3642.00
371.95	3599.00
372.42	3559.00
372.89	3624.00
373.36	3615.00
373.83	3538.00
374.30	3575.00
374.77	3645.00
375.23	3578.00
375.70	3649.00
376.17	3601.00
376.64	3598.00
377.11	3568.00
377.58	3651.00
378.05	3669.00
378.51	3608.00
378.98	3635.00
379.45	3652.00
379.92	3661.00
380.39	3735.00
380.86	3648.00
381.33	3675.00
381.79	3717.00
382.26	3557.00
382.73	3673.00
383.20	3612.00
383.67	3624.00
384.14	3669.00
384.60	3847.00
385.07	3653.00
385.54	3635.00
386.01	3623.00
386.48	3729.00
386.94	3575.00
387.41	3549.00
387.88	3689.00
388.35	3589.00
388.82	3729.00
389.28	3559.00
389.75	3706.00
390.22	3649.00
390.69	3652.00
391.16	3655.00
391.62	3677.00
392.09	3642.00
392.56	3592.00
393.03	3623.00
393.50	3759.00
393.96	3605.00
394.43	3725.00
394.90	3629.00
395.37	3703.00
395.83	3827.00
396.30	3566.00
396.77	3652.00
397.24	3691.00
397.70	3643.00
398.17	3671.00
398.64	3642.00
399.11	3623.00
399.57	3703.00
400.04	3635.00
400.51	3669.00
400.98	3640.00
401.44	3707.00
401.91	3646.00
402.38	3662.00
402.84	3657.00
403.31	3754.00
403.78	3707.00
404.25	3772.00
404.71	3785.00
405.18	3759.00
405.65	3634.00
406.12	3783.00
406.58	3717.00
407.05	3821.00
407.52	3728.00
407.98	4256.00
408.45	3708.00
408.92	3685.00
409.38	3803.00
409.85	3699.00
410.32	3834.00
410.78	3711.00
411.25	3793.00
411.72	3737.00
412.18	3740.00
412.65	3809.00
413.12	3740.00
413.59	3812.00
414.05	3839.00
414.52	3943.00
414.98	3847.00
415.45	3947.00
415.92	3890.00
416.38	3860.00
416.85	3978.00
417.32	3912.00
417.78	3883.00
418.25	3911.00
418.72	3970.00
419.18	4000.00
419.65	3901.00
420.12	3972.00
420.58	3974.00
421.05	4044.00
421.51	3986.00
421.98	4033.00
422.45	4050.00
422.91	4071.00
423.38	4085.00
423.85	4102.00
424.31	4120.00
424.78	4138.00
425.24	4095.00
425.71	4128.00
426.18	4092.00
426.64	4201.00
427.11	4153.00
427.57	4174.00
428.04	4081.00
428.51	4183.00
428.97	4139.00
429.44	4149.00
429.90	4103.00
430.37	4244.00
430.83	4093.00
431.30	4165.00
431.77	4330.00
432.23	4342.00
432.70	4251.00
433.16	4326.00
433.63	4304.00
434.09	4283.00
434.56	4425.00
435.03	4340.00
435.49	4453.00
435.96	4436.00
436.42	4429.00
436.89	4504.00
437.35	4411.00
437.82	4383.00
438.28	4378.00
438.75	4435.00
439.21	4656.00
439.68	4518.00
440.14	4546.00
440.61	4561.00
441.07	4571.00
441.54	4555.00
442.00	4741.00
442.47	4593.00
442.94	4650.00
443.40	4650.00
443.87	4631.00
444.33	4743.00
444.80	4733.00
445.26	4738.00
445.73	4699.00
446.19	4753.00
446.65	4777.00
447.12	4833.00
447.58	4833.00
448.05	4849.00
448.51	4884.00
448.98	4901.00
449.44	4937.00
449.91	4988.00
450.37	4954.00
450.84	4983.00
451.30	5004.00
451.77	5057.00
452.23	4931.00
452.70	5029.00
453.16	4963.00
453.62	5044.00
454.09	5012.00
454.55	5094.00
455.02	5030.00
455.48	5143.00
455.95	5205.00
456.41	5145.00
456.88	5185.00
457.34	5152.00
457.80	5130.00
458.27	5068.00
458.73	5179.00
459.20	5163.00
459.66	5173.00
460.13	5153.00
460.59	5150.00
461.05	5261.00
461.52	5235.00
461.98	5213.00
462.45	5180.00
462.91	5241.00
463.37	5208.00
463.84	5201.00
464.30	5233.00
464.76	5169.00
465.23	5183.00
465.69	5287.00
466.16	5175.00
466.62	5188.00
467.08	5192.00
467.55	5149.00
468.01	5229.00
468.48	5291.00
468.94	5259.00
469.40	5183.00
469.87	5245.00
470.33	5225.00
470.79	5185.00
471.26	5265.00
471.72	5281.00
472.18	5321.00
472.65	5308.00
473.11	5321.00
473.57	5334.00
474.04	5339.00
474.50	5352.00
474.96	5320.00
475.43	5370.00
475.89	5351.00
476.35	5406.00
476.82	5413.00
477.28	5480.00
477.74	5541.00
478.21	5469.00
478.67	5469.00
479.13	5386.00
479.59	5558.00
480.06	5555.00
480.52	5530.00
480.98	5551.00
481.45	5532.00
481.91	5568.00
482.37	5476.00
482.84	5544.00
483.30	5481.00
483.76	5479.00
484.22	5588.00
484.69	5503.00
485.15	5337.00
485.61	5155.00
486.07	5218.00
486.54	5255.00
487.00	5486.00
487.46	5396.00
487.92	5469.00
488.39	5526.00
488.85	5521.00
489.31	5611.00
489.77	5783.00
490.24	5631.00
490.70	5676.00
491.16	5610.00
491.62	5599.00
492.09	5591.00
492.55	5810.00
493.01	5850.00
493.47	5809.00
493.94	5881.00
494.40	5935.00
494.86	5900.00
495.32	5941.00
495.78	6019.00
496.25	6051.00
496.71	6039.00
497.17	6207.00
497.63	6138.00
498.09	6054.00
498.56	6110.00
499.02	6222.00
499.48	6418.00
499.94	6205.00
500.40	6210.00
500.87	6351.00
501.33	6291.00
501.79	6435.00
502.25	6473.00
502.71	6872.00
503.17	6639.00
503.64	6736.00
504.10	6776.00
504.56	6904.00
505.02	7034.00
505.48	7169.00
505.94	7353.00
506.40	7384.00
506.87	7371.00
507.33	7513.00
507.79	7490.00
508.25	7614.00
508.71	7871.00
509.17	7925.00
509.63	8072.00
510.10	8197.00
510.56	8379.00
511.02	8608.00
511.48	8855.00
511.94	8817.00
512.40	8851.00
512.86	9043.00
513.32	9093.00
513.78	9225.00
514.25	9493.00
514.71	10333.00
515.17	9825.00
515.63	10117.00
516.09	9896.00
516.55	9688.00
517.01	9975.00
517.47	10395.00
517.93	10434.00
518.39	10902.00
518.85	11291.00
519.32	11629.00
519.78	12217.00
520.24	12303.00
520.70	12667.00
521.16	13050.00
521.62	13393.00
522.08	13513.00
522.54	13641.00
523.00	14014.00
523.46	14496.00
523.92	14861.00
524.38	15225.00
524.84	15466.00
525.30	15447.00
525.76	15572.00
526.22	15004.00
526.68	14998.00
527.14	15522.00
527.60	16309.00
528.06	16722.00
528.52	17465.00
528.98	17771.00
529.44	17615.00
529.90	17989.00
530.36	18464.00
530.82	18735.00
531.28	18729.00
531.74	18767.00
532.20	18181.00
532.66	18247.00
533.12	18956.00
533.58	19259.00
534.04	19213.00
534.50	19543.00
534.96	19909.00
535.42	20433.00
535.88	20407.00
536.34	20023.00
536.80	19860.00
537.26	20556.00
537.72	20719.00
538.18	20812.00
538.64	20944.00
539.10	20615.00
539.56	20777.00
540.02	20440.00
540.48	20407.00
540.94	20853.00
541.40	21169.00
541.86	21442.00
542.32	21458.00
542.78	21385.00
543.24	21644.00
543.69	22066.00
544.15	22399.00
544.61	22240.00
545.07	22509.00
545.53	22502.00
545.99	22599.00
546.45	22730.00
546.91	22774.00
547.37	22455.00
547.83	22537.00
548.29	23029.00
548.74	23066.00
549.20	23250.00
549.66	23569.00
550.12	23339.00
550.58	23419.00
551.04	23464.00
551.50	23687.00
551.96	23973.00
552.42	23740.00
552.87	23498.00
553.33	24011.00
553.79	23967.00
554.25	24238.00
554.71	24249.00
555.17	24217.00
555.63	24144.00
556.08	23850.00
556.54	23730.00
557.00	23560.00
557.46	23666.00
557.92	23714.00
558.38	23221.00
558.83	22960.00
559.29	23141.00
559.75	22931.00
560.21	23379.00
560.67	23795.00
561.13	23322.00
561.58	22951.00
562.04	23097.00
562.50	23171.00
562.96	23314.00
563.42	23161.00
563.87	22805.00
564.33	22856.00
564.79	22681.00
565.25	22255.00
565.71	21955.00
566.16	22045.00
566.62	22164.00
567.08	22150.00
567.54	22208.00
568.00	21708.00
568.45	21293.00
568.91	21152.00
569.37	21247.00
569.83	21025.00
570.28	20654.00
570.74	20073.00
571.20	20305.00
571.66	20491.00
572.11	20545.00
572.57	20540.00
573.03	20278.00
573.49	20213.00
573.94	19829.00
574.40	19915.00
574.86	19539.00
575.32	19225.00
575.77	19188.00
576.23	18967.00
576.69	19139.00
577.15	18890.00
577.60	18760.00
578.06	18370.00
578.52	18397.00
578.97	18450.00
579.43	18521.00
579.89	18509.00
580.34	18487.00
580.80	18321.00
581.26	18315.00
581.72	18424.00
582.17	18250.00
582.63	18155.00
583.09	18155.00
583.54	18178.00
584.00	18265.00
584.46	17915.00
584.91	17671.00
585.37	17391.00
585.83	17269.00
586.28	17223.00
586.74	17398.00
587.20	17229.00
587.65	17277.00
588.11	16795.00
588.57	16203.00
589.02	15407.00
589.48	15484.00
589.94	16061.00
590.39	16506.00
590.85	16611.00
591.30	16346.00
591.76	16446.00
592.22	16449.00
592.67	16473.00
593.13	16369.00
593.59	16327.00
594.04	16294.00
594.50	16176.00
594.95	16221.00
595.41	16331.00
595.87	16160.00
596.32	16428.00
596.78	16252.00
597.23	16263.00
597.69	16131.00
598.15	16082.00
598.60	16112.00
599.06	16239.00
599.51	16180.00
599.97	16099.00
600.43	16039.00
600.88	15969.00
601.34	15870.00
601.79	15760.00
602.25	15996.00
602.70	15920.00
603.16	16059.00
603.61	15957.00
604.07	15985.00
604.53	15991.00
604.98	15672.00
605.44	15780.00
605.89	15706.00
606.35	15464.00
606.80	15571.00
607.26	15410.00
607.71	15274.00
608.17	15104.00
608.62	15029.00
609.08	15177.00
609.53	14998.00
609.99	14705.00
610.44	14597.00
610.90	14651.00
611.35	14599.00
611.81	14577.00
612.26	14407.00
612.72	14367.00
613.17	14342.00
613.63	13947.00
614.08	13850.00
614.54	13970.00
614.99	13823.00
615.45	13787.00
615.90	13476.00
616.36	13293.00
616.81	13323.00
617.27	13445.00
617.72	13523.00
618.18	13534.00
618.63	13477.00
619.09	13396.00
619.54	13441.00
619.99	13460.00
620.45	13519.00
620.90	13358.00
621.36	13123.00
621.81	13067.00
622.27	13249.00
622.72	13207.00
623.18	12878.00
623.63	12857.00
624.08	12877.00
624.54	12847.00
624.99	12791.00
625.45	12743.00
625.90	12808.00
626.35	12901.00
626.81	12826.00
627.26	12704.00
627.72	12613.00
628.17	12608.00
628.62	12736.00
629.08	12692.00
629.53	12732.00
629.99	12591.00
630.44	12722.00
630.89	12657.00
631.35	12631.00
631.80	12609.00
632.26	12732.00
632.71	12811.00
633.16	12807.00
633.62	12605.00
634.07	12634.00
634.52	12645.00
634.98	12717.00
635.43	12575.00
635.88	12466.00
636.34	12467.00
636.79	12435.00
637.24	12469.00
637.70	12441.00
638.15	12306.00
638.60	12224.00
639.06	12081.00
639.51	11867.00
639.96	11796.00
640.42	11720.00
640.87	11627.00
641.32	11468.00
641.78	11342.00
642.23	11396.00
642.68	11192.00
643.14	11097.00
643.59	11023.00
644.04	10952.00
644.49	10810.00
644.95	10672.00
645.40	10459.00
645.85	10352.00
646.31	10275.00
646.76	10149.00
647.21	10091.00
647.66	9893.00
648.12	9866.00
648.57	9779.00
649.02	9724.00
649.47	9463.00
649.93	9781.00
650.38	9646.00
650.83	9640.00
651.28	9453.00
651.74	9365.00
652.19	9363.00
652.64	9444.00
653.09	9212.00
653.55	9301.00
654.00	9303.00
654.45	9224.00
654.90	8933.00
655.35	8736.00
655.81	8362.00
656.26	7856.00
656.71	8261.00
657.16	8443.00
657.62	8640.00
658.07	8665.00
658.52	8625.00
658.97	8455.00
659.42	8613.00
659.88	8324.00
660.33	8361.00
660.78	8232.00
661.23	8142.00
661.68	8107.00
662.13	7977.00
662.59	7820.00
663.04	7826.00
663.49	7608.00
663.94	7578.00
664.39	7541.00
664.84	7419.00
665.30	7372.00
665.75	7323.00
666.20	7326.00
666.65	7235.00
667.10	7242.00
667.55	7150.00
668.00	6968.00
668.46	7057.00
668.91	6944.00
669.36	7047.00
669.81	6779.00
670.26	6754.00
670.71	6759.00
671.16	6732.00
671.61	6755.00
672.06	6740.00
672.52	6695.00
672.97	6645.00
673.42	6737.00
673.87	6741.00
674.32	6553.00
674.77	6586.00
675.22	6461.00
675.67	6547.00
676.12	6557.00
676.57	6567.00
677.02	6539.00
677.47	6521.00
677.93	6710.00
678.38	6531.00
678.83	6541.00
679.28	6617.00
679.73	6496.00
680.18	6547.00
680.63	6644.00
681.08	6600.00
681.53	6692.00
681.98	6675.00
682.43	6798.00
682.88	6901.00
683.33	6842.00
683.78	6933.00
684.23	7121.00
684.68	7196.00
685.13	7350.00
685.58	7406.00
686.03	7459.00
686.48	7270.00
686.93	6871.00
687.38	6917.00
687.83	7477.00
688.28	7935.00
688.73	8280.00
689.18	8371.00
689.63	8632.00
690.08	9131.00
690.53	9608.00
690.98	10027.00
691.43	10398.00
691.88	10863.00
692.33	11537.00
692.78	11985.00
693.23	12574.00
693.68	12933.00
694.13	13440.00
694.58	14135.00
695.03	14998.00
695.48	15505.00
695.93	16233.00
696.38	17212.00
696.83	18030.00
697.28	18722.00
697.72	19136.00
698.17	19831.00
698.62	20497.00
699.07	21108.00
699.52	21787.00
699.97	22581.00
700.42	23142.00
700.87	24007.00
701.32	24673.00
701.77	25082.00
702.22	25742.00
702.67	26348.00
703.11	27709.00
703.56	28286.00
704.01	29293.00
704.46	30342.00
704.91	30876.00
705.36	31351.00
705.81	31819.00
706.26	32316.00
706.70	33134.00
707.15	34055.00
707.60	34675.00
708.05	35185.00
708.50	35765.00
708.95	36339.00
709.40	36713.00
709.84	37591.00
710.29	38140.00
710.74	38487.00
711.19	39052.00
711.64	39330.00
712.09	40122.00
712.53	40591.00
712.98	40861.00
713.43	41451.00
713.88	41889.00
714.33	42006.00
714.78	41903.00
715.22	42257.00
715.67	42613.00
716.12	42172.00
716.57	40533.00
717.02	39151.00
717.46	38431.00
717.91	37969.00
718.36	37221.00
718.81	36824.00
719.26	37075.00
719.70	37661.00
720.15	38156.00
720.60	40140.00
721.05	42945.00
721.49	44744.00
721.94	45597.00
722.39	45461.00
722.84	44894.00
723.28	42866.00
723.73	42396.00
724.18	42587.00
724.63	43182.00
725.07	43247.00
725.52	44154.00
725.97	44809.00
726.42	45268.00
726.86	45779.00
727.31	45195.00
727.76	45197.00
728.21	46228.00
728.65	46099.00
729.10	46143.00
729.55	47029.00
729.99	48084.00
730.44	48233.00
730.89	48724.00
731.33	49672.00
731.78	50775.00
732.23	52185.00
732.68	52803.00
733.12	53437.00
733.57	54540.00
734.02	55623.00
734.46	56037.00
734.91	55788.00
735.36	55970.00
735.80	56458.00
736.25	56772.00
736.70	56824.00
737.14	57397.00
737.59	57975.00
738.04	57697.00
738.48	57214.00
738.93	57396.00
739.37	57975.00
739.82	59029.00
740.27	59219.00
740.71	58932.00
741.16	58714.00
741.61	58814.00
742.05	58992.00
742.50	59621.00
742.94	60180.00
743.39	60094.00
743.84	60354.00
744.28	60253.00
744.73	60354.00
745.18	60988.00
745.62	61088.00
746.07	61224.00
746.51	61406.00
746.96	60917.00
747.40	60864.00
747.85	60739.00
748.30	60697.00
748.74	60523.00
749.19	60373.00
749.63	60551.00
750.08	60686.00
750.52	60497.00
750.97	60559.00
751.42	60495.00
751.86	60555.00
752.31	60503.00
752.75	60092.00
753.20	60348.00
753.64	60215.00
754.09	60161.00
754.53	60488.00
754.98	60429.00
755.42	60007.00
755.87	60258.00
756.31	60045.00
756.76	59357.00
757.20	59020.00
757.65	58618.00
758.09	57851.00
758.54	55924.00
758.98	50005.00
759.43	39299.00
759.87	27751.00
760.32	20755.00
760.76	20426.00
761.21	25262.00
761.65	31288.00
762.10	33029.00
762.54	31194.00
762.99	29646.00
763.43	30300.00
763.88	32491.00
764.32	35190.00
764.77	38487.00
765.21	41237.00
765.66	43738.00
766.10	46275.00
766.54	48568.00
766.99	51029.00
767.43	52842.00
767.88	53948.00
768.32	55163.00
768.77	55880.00
769.21	56695.00
769.66	57576.00
770.10	58364.00
770.54	58566.00
770.99	58669.00
771.43	58350.00
771.88	58129.00
772.32	58239.00
772.76	58246.00
773.21	58211.00
773.65	57859.00
774.10	57678.00
774.54	57593.00
774.98	57936.00
775.43	58235.00
775.87	58564.00
776.31	58864.00
776.76	59004.00
777.20	58543.00
777.65	58229.00
778.09	57790.00
778.53	57614.00
778.98	57371.00
779.42	57080.00
779.86	57328.00
780.31	57113.00
780.75	57325.00
781.19	57826.00
781.64	58120.00
782.08	58214.00
782.52	57742.00
782.97	57072.00
783.41	56851.00
783.85	56448.00
784.30	55991.00
784.74	55729.00
785.18	55842.00
785.63	55997.00
786.07	55734.00
786.51	55771.00
786.95	55680.00
787.40	55634.00
787.84	55664.00
788.28	55179.00
788.73	54639.00
789.17	54307.00
789.61	53744.00
790.05	53284.00
790.50	53113.00
790.94	52937.00
791.38	53009.00
791.82	52803.00
792.27	53123.00
792.71	53240.00
793.15	53428.00
793.59	53388.00
794.04	53136.00
794.48	52533.00
794.92	52112.00
795.36	51672.00
795.81	51420.00
796.25	51177.00
796.69	51724.00
797.13	52025.00
797.57	52368.00
798.02	52681.00
798.46	52749.00
798.90	52791.00
799.34	52147.00
799.79	51596.00
800.23	50741.00
800.67	50402.00
801.11	50225.00
801.55	50151.00
801.99	49771.00
802.44	50158.00
802.88	50111.00
803.32	50648.00
803.76	51059.00
804.20	51042.00
804.64	51009.00
805.09	51026.00
805.53	50945.00
805.97	50369.00
806.41	50041.00
806.85	49475.00
807.29	48903.00
807.74	48865.00
808.18	48803.00
808.62	48654.00
809.06	48730.00
809.50	48989.00
809.94	48803.00
810.38	48951.00
810.82	49076.00
811.27	48750.00
811.71	47617.00
812.15	47026.00
812.59	45495.00
813.03	44540.00
813.47	42956.00
813.91	41891.00
814.35	41183.00
814.79	40691.00
815.23	40403.00
815.67	39669.00
816.12	40108.00
816.56	39740.00
817.00	40262.00
817.44	40732.00
817.88	40543.00
818.32	39932.00
818.76	40254.00
819.20	40115.00
819.64	40611.00
820.08	40906.00
820.52	41974.00
820.96	42880.00
821.40	41847.00
821.84	40670.00
822.28	38690.00
822.72	38276.00
823.16	37989.00
823.60	40215.00
824.04	42981.00
824.48	43784.00
824.92	43699.00
825.36	43389.00
825.80	42756.00
826.24	42467.00
826.68	42020.00
827.12	41701.00
827.56	41075.00
828.00	40929.00
828.44	41396.00
828.88	42040.00
829.32	42571.00
829.76	42381.00
830.20	43049.00
830.64	42625.00
831.08	42281.00
831.52	41600.00
831.96	41162.00
832.40	40700.00
832.84	41237.00
833.28	41486.00
833.72	42306.00
834.16	43075.00
834.60	44335.00
835.04	44777.00
835.48	45201.00
835.91	44973.00
836.35	44712.00
836.79	44473.00
837.23	44240.00
837.67	43734.00
838.11	43377.00
838.55	43617.00
838.99	43434.00
839.43	43891.00
839.87	44565.00
840.30	44974.00
840.74	45528.00
841.18	46149.00
841.62	46245.00
842.06	46028.00
842.50	45977.00
842.94	45476.00
843.38	44813.00
843.81	44055.00
844.25	43647.00
844.69	43300.00
845.13	43111.00
845.57	43402.00
846.01	43765.00
846.45	44004.00
846.88	44565.00
847.32	45038.00
847.76	45795.00
848.20	45826.00
848.64	45055.00
849.08	44315.00
849.51	44377.00
849.95	43214.00
850.39	43353.00
850.83	43936.00
851.27	43543.00
851.70	42887.00
852.14	42480.00
852.58	41743.00
853.02	40518.00
853.46	39159.00
853.89	39202.00
854.33	39039.00
854.77	41007.00
855.21	43573.00
855.65	44755.00
856.08	45431.00
856.52	45623.00
856.96	45072.00
857.40	44152.00
857.83	43364.00
858.27	42736.00
858.71	42095.00
859.15	42115.00
859.58	42235.00
860.02	42787.00
860.46	43212.00
860.89	43931.00
861.33	44262.00
861.77	44851.00
862.21	45321.00
862.64	45374.00
863.08	45340.00
863.52	44762.00
863.95	43941.00
864.39	43183.00
864.83	41235.00
865.27	39599.00
865.70	39178.00
866.14	38482.00
866.58	38692.00
867.01	40465.00
867.45	41746.00
867.89	43005.00
868.32	43664.00
868.76	44260.00
869.20	44251.00
869.63	44403.00
870.07	43686.00
870.51	42859.00
870.94	41965.00
871.38	41051.00
871.82	40521.00
872.25	39913.00
872.69	40064.00
873.13	40201.00
873.56	40726.00
874.00	41232.00
874.43	41886.00
874.87	42637.00
875.31	42978.00
875.74	43188.00
876.18	43611.00
876.61	43363.00
877.05	42888.00
877.49	42258.00
877.92	41686.00
878.36	41011.00
878.79	40289.00
879.23	39413.00
879.67	38982.00
880.10	38887.00
880.54	38813.00
880.97	39421.00
881.41	40569.00
881.84	41740.00
882.28	42401.00
882.72	42999.00
883.15	43539.00
883.59	43553.00
884.02	43398.00
884.46	42969.00
884.89	42101.00
885.33	41351.00
885.76	40317.00
886.20	39286.00
886.63	38895.00
887.07	38487.00
887.50	38684.00
887.94	38950.00
888.37	39372.00
888.81	39890.00
889.24	40098.00
889.68	40749.00
890.11	41110.00
890.55	41495.00
890.98	41966.00
891.42	41889.00
891.85	41710.00
892.29	41137.00
892.72	40069.00
893.16	38714.00
893.59	37813.00
894.03	36683.00
894.46	35666.00
894.90	34259.00
895.33	33007.00
895.77	33090.00
896.20	32577.00
896.63	32759.00
897.07	32992.00
897.50	32522.00
897.94	32868.00
898.37	34185.00
898.81	31931.00
899.24	31949.00
899.68	33657.00
900.11	32894.00
900.54	32181.00
900.98	31545.00
901.41	31327.00
901.85	31481.00
902.28	31787.00
902.71	32080.00
903.15	33121.00
903.58	34492.00
904.02	34255.00
904.45	34194.00
904.88	34156.00
905.32	33966.00
905.75	33737.00
906.18	32450.00
906.62	32869.00
907.05	31896.00
907.48	32113.00
907.92	31576.00
908.35	31818.00
908.79	31053.00
909.22	30878.00
909.65	30448.00
910.09	30485.00
910.52	29787.00
910.95	30148.00
911.38	30475.00
911.82	29068.00
912.25	29912.00
912.68	30510.00
913.12	30163.00
913.55	30439.00
913.98	31597.00
914.42	32649.00
914.85	32995.00
915.28	31422.00
915.72	31103.00
916.15	30717.00
916.58	30999.00
917.01	29826.00
917.45	29011.00
917.88	29865.00
918.31	30355.00
918.74	31440.00
919.18	31984.00
919.61	31828.00
920.04	32522.00
920.47	32811.00
920.91	33153.00
921.34	32989.00
921.77	33329.00
922.20	33785.00
922.64	33646.00
923.07	33419.00
923.50	33013.00
923.93	32469.00
924.37	32001.00
924.80	31296.00
925.23	31007.00
925.66	29767.00
926.09	28524.00
926.53	27996.00
926.96	26951.00
927.39	25749.00
927.82	24451.00
928.25	23474.00
928.69	22873.00
929.12	22690.00
929.55	21444.00
929.98	20537.00
930.41	19323.00
930.84	18091.00
931.28	16863.00
931.71	15619.00
932.14	13980.00
932.57	13444.00
933.00	12923.00
933.43	12256.00
933.86	11448.00
934.30	11025.00
934.73	12507.00
935.16	11787.00
935.59	10971.00
936.02	11764.00
936.45	11436.00
936.88	11420.00
937.31	12599.00
937.75	13095.00
938.18	14072.00
938.61	14568.00
939.04	15544.00
939.47	15170.00
939.90	14026.00
940.33	13557.00
940.76	12589.00
941.19	11946.00
941.62	11822.00
942.05	11540.00
942.48	10314.00
942.91	10351.00
943.35	11073.00
943.78	10277.00
944.21	10111.00
944.64	11119.00
945.07	11508.00
945.50	11075.00
945.93	11415.00
946.36	11794.00
946.79	12335.00
947.22	12960.00
947.65	12551.00
948.08	12066.00
948.51	13051.00
948.94	13363.00
949.37	12643.00
949.80	12064.00
950.23	12384.00
950.66	13086.00
951.09	12887.00
951.52	12289.00
951.95	12436.00
952.38	12861.00
952.81	13697.00
953.24	14518.00
953.67	14731.00
954.10	14383.00
954.53	15130.00
954.96	14924.00
955.39	15509.00
955.82	16535.00
956.25	15794.00
956.68	16131.00
957.11	16664.00
957.53	15865.00
957.96	15769.00
958.39	15536.00
958.82	14891.00
959.25	15403.00
959.68	16125.00
960.11	16404.00
960.54	16622.00
960.97	17601.00
961.40	18297.00
961.83	17848.00
962.26	18343.00
962.68	19943.00
963.11	20021.00
963.54	20321.00
963.97	20493.00
964.40	20449.00
964.83	20977.00
965.26	21190.00
965.69	20811.00
966.11	20575.00
966.54	20798.00
966.97	21778.00
967.40	22006.00
967.83	21855.00
968.26	22019.00
968.69	22169.00
969.11	22332.00
969.54	22210.00
969.97	22364.00
970.40	22745.00
970.83	22817.00
971.26	22990.00
971.68	22996.00
972.11	23239.00
972.54	23606.00
972.97	23357.00
973.40	22953.00
973.82	22996.00
974.25	22923.00
974.68	22626.00
975.11	22429.00
975.54	21899.00
975.96	21528.00
976.39	21644.00
976.82	21740.00
977.25	21333.00
977.67	21351.00
978.10	21582.00
978.53	21804.00
978.96	22313.00
979.38	22791.00
979.81	23132.00
980.24	23827.00
980.67	24240.00
981.09	24620.00
981.52	24864.00
981.95	24871.00
982.38	25104.00
982.80	25278.00
983.23	25552.00
983.66	25616.00
984.08	25291.00
984.51	25008.00
984.94	24771.00
985.37	24545.00
985.79	24151.00
986.22	23601.00
986.65	23321.00
987.07	23020.00
987.50	23079.00
987.93	22989.00
988.35	23013.00
988.78	23296.00
989.21	23436.00
989.63	23929.00
990.06	24143.00
990.49	24540.00
990.91	24957.00
991.34	25063.00
991.77	25142.00
992.19	25309.00
992.62	25147.00
993.05	25059.00
993.47	24796.00
993.90	24409.00
994.32	24076.00
994.75	23452.00
995.18	23087.00
995.60	22807.00
996.03	22595.00
996.45	22424.00
996.88	22148.00
997.31	22072.00
997.73	22108.00
998.16	22047.00
998.58	22393.00
999.01	22353.00
999.44	22538.00
999.86	23030.00
1000.29	23230.00
1000.71	23279.00
1001.14	23594.00
1001.56	23189.00
1001.99	23211.00
1002.41	22800.00
1002.84	22369.00
1003.27	21913.00
1003.69	21452.00
1004.12	20979.00
1004.54	20636.00
1004.97	20285.00
1005.39	20108.00
1005.82	19931.00
1006.24	19941.00
1006.67	19882.00
1007.09	19813.00
1007.52	19665.00
1007.94	19590.00
1008.37	19940.00
1008.79	19751.00
1009.22	19856.00
1009.64	19929.00
1010.07	20022.00
1010.49	20203.00
1010.92	20128.00
1011.34	20061.00
1011.77	20160.00
1012.19	20028.00
1012.62	19893.00
1013.04	19540.00
1013.46	19279.00
1013.89	18709.00
1014.31	18327.00
1014.74	18086.00
1015.16	17955.00
1015.59	17760.00
1016.01	17774.00
1016.44	17785.00
1016.86	18953.00
1017.28	17895.00
1017.71	18137.00
1018.13	18471.00
1018.56	18450.00
1018.98	18619.00
1019.40	18741.00
1019.83	18894.00
1020.25	18896.00
1020.68	19035.00
1021.10	19324.00
1021.52	19330.00
1021.95	19582.00
1022.37	19394.00
1022.79	19296.00
1023.22	19194.00
1023.64	19013.00
1024.07	18558.00
1024.49	18513.00
1024.91	18237.00
1025.34	17944.00
1025.76	17889.00
1026.18	17567.00
1026.61	17599.00
1027.03	17515.00
1027.45	17531.00
1027.88	17352.00
1028.30	17749.00
1028.72	17767.00
1029.15	17843.00
1029.57	18007.00
1029.99	17957.00
1030.41	17941.00
1030.84	17883.00
1031.26	17834.00
1031.68	17714.00
1032.11	17597.00
1032.53	17327.00
1032.95	17223.00
1033.37	16733.00
1033.80	16529.00
1034.22	16337.00
1034.64	16222.00
1035.06	15773.00
1035.49	15588.00
1035.91	15463.00
1036.33	15187.00
1036.75	15101.00
1037.18	15096.00
1037.60	14979.00
1038.02	14944.00
1038.44	15070.00
1038.87	14979.00
1039.29	14985.00
1039.71	15077.00
1040.13	15050.00
1040.55	15113.00
1040.98	15055.00
1041.40	14961.00
1041.82	14928.00
1042.24	14642.00
1042.66	14431.00
1043.09	14192.00
1043.51	14103.00
1043.93	13747.00
1044.35	13544.00
1044.77	13365.00
1045.20	13287.00
1045.62	13032.00
1046.04	13019.00
1046.46	12688.00
1046.88	12477.00
1047.30	12559.00
1047.72	12551.00
1048.15	12333.00
1048.57	12181.00
1048.99	12214.00
1049.41	12203.00
1049.83	12205.00
1050.25	12054.00
1050.67	12055.00
1051.09	11932.00
1051.52	12003.00
1051.94	11812.00
1052.36	11971.00
1052.78	11837.00
1053.20	11751.00
1053.62	11735.00
1054.04	11583.00
1054.46	11342.00
1054.88	11371.00
1055.30	11073.00
1055.72	11089.00
1056.14	10928.00
1056.57	10896.00
1056.99	10497.00
1057.41	10496.00
1057.83	10351.00
1058.25	10171.00
1058.67	10049.00
1059.09	9863.00
1059.51	9870.00
1059.93	9643.00
1060.35	9642.00
1060.77	9649.00
1061.19	9694.00
1061.61	9552.00
1062.03	9468.00
1062.45	9484.00
1062.87	9521.00
1063.29	9349.00
1063.71	9352.00
1064.13	9207.00
1064.55	9257.00
1064.97	9147.00
1065.39	9027.00
1065.81	9026.00
1066.23	8974.00
1066.65	8814.00
1067.07	8841.00
1067.49	8685.00
1067.91	8487.00
1068.33	8406.00
1068.75	8604.00
1069.17	8402.00
1069.59	8445.00
1070.00	8203.00
1070.42	8131.00
1070.84	7963.00
1071.26	7956.00
1071.68	7939.00
1072.10	7955.00
1072.52	7869.00
1072.94	7802.00
1073.36	7749.00
1073.78	7746.00
1074.20	7783.00
1074.62	7703.00
1075.03	7745.00
1075.45	7682.00
1075.87	7687.00
1076.29	7563.00
1076.71	7666.00
1077.13	7633.00
1077.55	7403.00
1077.97	7357.00
1078.38	7374.00
1078.80	7247.00
1079.22	7190.00
1079.64	7175.00
1080.06	6999.00
1080.48	6987.00
1080.89	6786.00
1081.31	6868.00
1081.73	6811.00
1082.15	6709.00
1082.57	6725.00
1082.99	6692.00
1083.40	6616.00
1083.82	6628.00
1084.24	6523.00
1084.66	6480.00
1085.08	6464.00
1085.49	6390.00
1085.91	6451.00
1086.33	7725.00
1086.75	6402.00
1087.17	6452.00
1087.58	6315.00
1088.00	6342.00
1088.42	6349.00
1088.84	6205.00
1089.25	6110.00
1089.67	6088.00
1090.09	5981.00
1090.51	5898.00
1090.92	6009.00
1091.34	5792.00
1091.76	5815.00
1092.18	5759.00
1092.59	5670.00
1093.01	5633.00
1093.43	5551.00
1093.84	5476.00
1094.26	5513.00
1094.68	5485.00
1095.10	5395.00
1095.51	5449.00
1095.93	5314.00
1096.35	5344.00
1096.76	5349.00
1097.18	5300.00
1097.60	5221.00
1098.01	5227.00
1098.43	5133.00
1098.85	5132.00
1099.26	5083.00
1099.68	5132.00
1100.10	4951.00
1100.51	4919.00
1100.93	4907.00
1101.35	4875.00
1101.76	4825.00
1102.18	5223.00
1102.60	4778.00
1103.01	4614.00
1103.43	4713.00
1103.84	4640.00
1104.26	4545.00
1104.68	4600.00
1105.09	4543.00
1105.51	4520.00
1105.92	4568.00
1106.34	4407.00
1106.76	4494.00
1107.17	4413.00
1107.59	4339.00
1108.00	4258.00
1108.42	4192.00
1108.83	4168.00
1109.25	4159.00
1109.67	4103.00
1110.08	4104.00
1110.50	4063.00
1110.91	4093.00
1111.33	3982.00
1111.74	3983.00
1112.16	3955.00
1112.57	3953.00
1112.99	3820.00
1113.41	3791.00
1113.82	3771.00
1114.24	3707.00
1114.65	3643.00
1115.07	3477.00
1115.48	3426.00
1115.90	2184.00
1116.31	2217.00
1116.73	2212.00
1117.14	2218.00
>>>>>End Processed Spectral Data<<<<<
