SpectraSuite Data File
++++++++++++++++++++++++++++++++++++
Date: Tue May 29 13:11:12 EEST 2018
User: CanSEE
Dark Spectrum Present: No
Reference Spectrum Present: No
Number of Sampled Component Spectra: 1
Spectrometers: MAYP11278
Integration Time (usec): 230000 (MAYP11278)
Spectra Averaged: 1 (MAYP11278)
Boxcar Smoothing: 0 (MAYP11278)
Correct for Electrical Dark: No (MAYP11278)
Strobe/Lamp Enabled: No (MAYP11278)
Correct for Detector Non-linearity: No (MAYP11278)
Correct for Stray Light: No (MAYP11278)
Number of Pixels in Processed Spectrum: 2068
>>>>>Begin Processed Spectral Data<<<<<
187.82	2338.00
188.30	2232.00
188.78	2215.00
189.26	2208.00
189.73	3365.00
190.21	3420.00
190.69	3556.00
191.17	3539.00
191.64	3591.00
192.12	3581.00
192.60	3544.00
193.07	3531.00
193.55	3534.00
194.03	3574.00
194.51	3568.00
194.98	3551.00
195.46	3633.00
195.94	3577.00
196.42	3569.00
196.89	3657.00
197.37	3564.00
197.85	3494.00
198.32	3564.00
198.80	3539.00
199.28	3593.00
199.76	3610.00
200.23	3539.00
200.71	3544.00
201.19	3603.00
201.66	3606.00
202.14	3595.00
202.62	3516.00
203.09	3546.00
203.57	3539.00
204.05	3591.00
204.53	3652.00
205.00	3537.00
205.48	3585.00
205.96	3624.00
206.43	3563.00
206.91	3575.00
207.39	3697.00
207.86	3574.00
208.34	3619.00
208.82	3584.00
209.29	3595.00
209.77	3599.00
210.25	3587.00
210.72	3589.00
211.20	3605.00
211.68	3584.00
212.15	3593.00
212.63	3635.00
213.11	3588.00
213.58	3547.00
214.06	3655.00
214.53	3604.00
215.01	3673.00
215.49	3603.00
215.96	3599.00
216.44	3623.00
216.92	3623.00
217.39	3545.00
217.87	3570.00
218.35	3646.00
218.82	3511.00
219.30	3595.00
219.77	3504.00
220.25	3576.00
220.73	3672.00
221.20	3587.00
221.68	3600.00
222.15	3548.00
222.63	3606.00
223.11	3558.00
223.58	3608.00
224.06	3574.00
224.53	3515.00
225.01	3559.00
225.49	3526.00
225.96	3522.00
226.44	3593.00
226.91	3599.00
227.39	3519.00
227.87	3597.00
228.34	3602.00
228.82	3601.00
229.29	3550.00
229.77	3562.00
230.24	3553.00
230.72	3584.00
231.20	3655.00
231.67	3562.00
232.15	3602.00
232.62	3496.00
233.10	3560.00
233.57	3599.00
234.05	3717.00
234.53	3594.00
235.00	3582.00
235.48	3581.00
235.95	3560.00
236.43	3636.00
236.90	3683.00
237.38	3539.00
237.85	3615.00
238.33	3610.00
238.80	3566.00
239.28	3559.00
239.75	3513.00
240.23	3627.00
240.71	3667.00
241.18	3569.00
241.66	3586.00
242.13	3671.00
242.61	3621.00
243.08	3529.00
243.56	3561.00
244.03	3560.00
244.51	3654.00
244.98	3552.00
245.46	3618.00
245.93	4970.00
246.41	3487.00
246.88	3573.00
247.36	3590.00
247.83	3578.00
248.31	3613.00
248.78	3550.00
249.26	3619.00
249.73	3646.00
250.21	3650.00
250.68	3703.00
251.16	3611.00
251.63	3664.00
252.10	3638.00
252.58	3565.00
253.05	3673.00
253.53	3594.00
254.00	3603.00
254.48	3610.00
254.95	3623.00
255.43	3652.00
255.90	3549.00
256.38	3624.00
256.85	3572.00
257.33	3643.00
257.80	3739.00
258.27	3620.00
258.75	3613.00
259.22	3575.00
259.70	3581.00
260.17	3679.00
260.65	3611.00
261.12	3565.00
261.59	3692.00
262.07	3541.00
262.54	3661.00
263.02	3609.00
263.49	3547.00
263.97	3597.00
264.44	3646.00
264.91	3557.00
265.39	3607.00
265.86	3591.00
266.34	3707.00
266.81	3590.00
267.28	3633.00
267.76	3593.00
268.23	3585.00
268.71	3516.00
269.18	3542.00
269.65	3552.00
270.13	3604.00
270.60	3633.00
271.08	3596.00
271.55	3577.00
272.02	3565.00
272.50	3552.00
272.97	3524.00
273.44	3581.00
273.92	3733.00
274.39	3630.00
274.87	3641.00
275.34	3546.00
275.81	3551.00
276.29	3579.00
276.76	3619.00
277.23	3500.00
277.71	3515.00
278.18	3460.00
278.65	3657.00
279.13	3516.00
279.60	3566.00
280.07	3856.00
280.55	3799.00
281.02	3912.00
281.50	3694.00
281.97	3702.00
282.44	3639.00
282.91	3639.00
283.39	3657.00
283.86	3642.00
284.33	3582.00
284.81	3659.00
285.28	3633.00
285.75	3647.00
286.23	3630.00
286.70	3591.00
287.17	3655.00
287.65	3690.00
288.12	3591.00
288.59	3611.00
289.07	3549.00
289.54	3652.00
290.01	3599.00
290.48	3602.00
290.96	3594.00
291.43	3639.00
291.90	3687.00
292.38	3592.00
292.85	3650.00
293.32	3596.00
293.79	3634.00
294.27	3648.00
294.74	3585.00
295.21	3645.00
295.69	3648.00
296.16	3712.00
296.63	3715.00
297.10	3685.00
297.58	3615.00
298.05	3657.00
298.52	3625.00
298.99	3667.00
299.47	3589.00
299.94	3591.00
300.41	3604.00
300.88	3673.00
301.36	3665.00
301.83	3662.00
302.30	3558.00
302.77	3661.00
303.25	3679.00
303.72	3581.00
304.19	3573.00
304.66	3564.00
305.13	3665.00
305.61	3625.00
306.08	3627.00
306.55	3658.00
307.02	3561.00
307.49	3629.00
307.97	3601.00
308.44	3570.00
308.91	3625.00
309.38	3637.00
309.86	3651.00
310.33	3610.00
310.80	3611.00
311.27	3629.00
311.74	3667.00
312.21	3630.00
312.69	3709.00
313.16	3601.00
313.63	3630.00
314.10	3648.00
314.57	3577.00
315.05	3595.00
315.52	3650.00
315.99	3679.00
316.46	3638.00
316.93	3625.00
317.40	3629.00
317.88	3749.00
318.35	3593.00
318.82	3639.00
319.29	3585.00
319.76	3643.00
320.23	3713.00
320.70	3644.00
321.18	3621.00
321.65	3597.00
322.12	3611.00
322.59	3669.00
323.06	3646.00
323.53	3687.00
324.00	3575.00
324.48	3635.00
324.95	3658.00
325.42	3632.00
325.89	3637.00
326.36	3659.00
326.83	3685.00
327.30	3673.00
327.77	3685.00
328.24	3687.00
328.72	3616.00
329.19	3651.00
329.66	3649.00
330.13	3666.00
330.60	3726.00
331.07	3667.00
331.54	3731.00
332.01	3575.00
332.48	3765.00
332.95	3691.00
333.43	3695.00
333.90	3727.00
334.37	3679.00
334.84	3699.00
335.31	3839.00
335.78	3605.00
336.25	3655.00
336.72	3648.00
337.19	3667.00
337.66	3609.00
338.13	3636.00
338.60	3695.00
339.07	3659.00
339.54	3533.00
340.01	3583.00
340.49	3601.00
340.96	3620.00
341.43	3678.00
341.90	3563.00
342.37	3605.00
342.84	3622.00
343.31	3559.00
343.78	3568.00
344.25	3581.00
344.72	3560.00
345.19	3594.00
345.66	3638.00
346.13	3592.00
346.60	3528.00
347.07	3653.00
347.54	3595.00
348.01	3675.00
348.48	3581.00
348.95	3560.00
349.42	3599.00
349.89	3615.00
350.36	3597.00
350.83	3561.00
351.30	3592.00
351.77	3707.00
352.24	3615.00
352.71	3564.00
353.18	3607.00
353.65	3569.00
354.12	3592.00
354.59	3632.00
355.06	3619.00
355.53	3669.00
356.00	3553.00
356.47	3685.00
356.94	3570.00
357.41	3741.00
357.88	3617.00
358.35	3579.00
358.82	3584.00
359.28	3617.00
359.75	3553.00
360.22	3651.00
360.69	3687.00
361.16	3562.00
361.63	3576.00
362.10	3608.00
362.57	3599.00
363.04	3616.00
363.51	3694.00
363.98	3621.00
364.45	3570.00
364.92	3670.00
365.39	3576.00
365.86	3541.00
366.32	3635.00
366.79	3603.00
367.26	4813.00
367.73	3969.00
368.20	3559.00
368.67	3629.00
369.14	3588.00
369.61	3665.00
370.08	3651.00
370.55	3608.00
371.02	4455.00
371.48	3598.00
371.95	3626.00
372.42	3566.00
372.89	3603.00
373.36	3655.00
373.83	3541.00
374.30	3578.00
374.77	3634.00
375.23	3574.00
375.70	3729.00
376.17	3630.00
376.64	3577.00
377.11	3617.00
377.58	3679.00
378.05	3669.00
378.51	3635.00
378.98	3623.00
379.45	3612.00
379.92	3628.00
380.39	3756.00
380.86	3639.00
381.33	3682.00
381.79	3735.00
382.26	3571.00
382.73	3655.00
383.20	3566.00
383.67	3671.00
384.14	3646.00
384.60	3852.00
385.07	3632.00
385.54	3635.00
386.01	3643.00
386.48	3718.00
386.94	3618.00
387.41	3607.00
387.88	3650.00
388.35	3636.00
388.82	3696.00
389.28	3591.00
389.75	3615.00
390.22	3629.00
390.69	3637.00
391.16	3619.00
391.62	3637.00
392.09	3639.00
392.56	3601.00
393.03	3645.00
393.50	3769.00
393.96	3634.00
394.43	3673.00
394.90	3632.00
395.37	3666.00
395.83	3869.00
396.30	3586.00
396.77	3686.00
397.24	3724.00
397.70	3586.00
398.17	3637.00
398.64	3633.00
399.11	3643.00
399.57	3732.00
400.04	3622.00
400.51	3677.00
400.98	3625.00
401.44	3694.00
401.91	3665.00
402.38	3680.00
402.84	3650.00
403.31	3732.00
403.78	3681.00
404.25	3773.00
404.71	3755.00
405.18	3759.00
405.65	3638.00
406.12	3724.00
406.58	3715.00
407.05	3826.00
407.52	3700.00
407.98	4259.00
408.45	3731.00
408.92	3684.00
409.38	3817.00
409.85	3658.00
410.32	3832.00
410.78	3703.00
411.25	3848.00
411.72	3794.00
412.18	3707.00
412.65	3797.00
413.12	3774.00
413.59	3833.00
414.05	3842.00
414.52	3932.00
414.98	3790.00
415.45	3900.00
415.92	3841.00
416.38	3911.00
416.85	3951.00
417.32	3904.00
417.78	3871.00
418.25	3922.00
418.72	3890.00
419.18	3982.00
419.65	3921.00
420.12	4007.00
420.58	3942.00
421.05	3996.00
421.51	3969.00
421.98	4066.00
422.45	3979.00
422.91	4031.00
423.38	4099.00
423.85	4104.00
424.31	4080.00
424.78	4107.00
425.24	4108.00
425.71	4145.00
426.18	4094.00
426.64	4223.00
427.11	4144.00
427.57	4223.00
428.04	4113.00
428.51	4232.00
428.97	4121.00
429.44	4143.00
429.90	4125.00
430.37	4219.00
430.83	4105.00
431.30	4206.00
431.77	4346.00
432.23	4343.00
432.70	4280.00
433.16	4279.00
433.63	4294.00
434.09	4273.00
434.56	4393.00
435.03	4327.00
435.49	4425.00
435.96	4504.00
436.42	4430.00
436.89	4487.00
437.35	4445.00
437.82	4412.00
438.28	4375.00
438.75	4404.00
439.21	4665.00
439.68	4527.00
440.14	4527.00
440.61	4578.00
441.07	4581.00
441.54	4538.00
442.00	4719.00
442.47	4593.00
442.94	4709.00
443.40	4671.00
443.87	4668.00
444.33	4760.00
444.80	4751.00
445.26	4691.00
445.73	4717.00
446.19	4707.00
446.65	4807.00
447.12	4829.00
447.58	4798.00
448.05	4786.00
448.51	4943.00
448.98	4924.00
449.44	4948.00
449.91	4945.00
450.37	4985.00
450.84	5068.00
451.30	5044.00
451.77	5037.00
452.23	4936.00
452.70	4985.00
453.16	5004.00
453.62	5044.00
454.09	5073.00
454.55	5122.00
455.02	5057.00
455.48	5086.00
455.95	5156.00
456.41	5147.00
456.88	5225.00
457.34	5165.00
457.80	5161.00
458.27	5012.00
458.73	5177.00
459.20	5147.00
459.66	5231.00
460.13	5157.00
460.59	5177.00
461.05	5337.00
461.52	5219.00
461.98	5153.00
462.45	5245.00
462.91	5213.00
463.37	5170.00
463.84	5215.00
464.30	5178.00
464.76	5132.00
465.23	5219.00
465.69	5239.00
466.16	5189.00
466.62	5180.00
467.08	5260.00
467.55	5223.00
468.01	5199.00
468.48	5232.00
468.94	5210.00
469.40	5189.00
469.87	5227.00
470.33	5197.00
470.79	5205.00
471.26	5285.00
471.72	5304.00
472.18	5311.00
472.65	5296.00
473.11	5325.00
473.57	5331.00
474.04	5291.00
474.50	5388.00
474.96	5326.00
475.43	5343.00
475.89	5319.00
476.35	5328.00
476.82	5383.00
477.28	5465.00
477.74	5551.00
478.21	5477.00
478.67	5551.00
479.13	5428.00
479.59	5591.00
480.06	5500.00
480.52	5523.00
480.98	5501.00
481.45	5493.00
481.91	5609.00
482.37	5442.00
482.84	5503.00
483.30	5495.00
483.76	5481.00
484.22	5559.00
484.69	5508.00
485.15	5409.00
485.61	5154.00
486.07	5169.00
486.54	5269.00
487.00	5415.00
487.46	5418.00
487.92	5465.00
488.39	5480.00
488.85	5540.00
489.31	5599.00
489.77	5703.00
490.24	5588.00
490.70	5691.00
491.16	5606.00
491.62	5573.00
492.09	5640.00
492.55	5710.00
493.01	5743.00
493.47	5778.00
493.94	5790.00
494.40	5916.00
494.86	5921.00
495.32	5872.00
495.78	5950.00
496.25	6000.00
496.71	6060.00
497.17	6219.00
497.63	6123.00
498.09	6035.00
498.56	6156.00
499.02	6213.00
499.48	6360.00
499.94	6191.00
500.40	6251.00
500.87	6247.00
501.33	6253.00
501.79	6448.00
502.25	6562.00
502.71	6868.00
503.17	6737.00
503.64	6759.00
504.10	6791.00
504.56	6959.00
505.02	7100.00
505.48	7181.00
505.94	7364.00
506.40	7340.00
506.87	7378.00
507.33	7513.00
507.79	7488.00
508.25	7670.00
508.71	7907.00
509.17	7949.00
509.63	8063.00
510.10	8126.00
510.56	8402.00
511.02	8592.00
511.48	8770.00
511.94	8853.00
512.40	8795.00
512.86	9040.00
513.32	9200.00
513.78	9176.00
514.25	9471.00
514.71	10420.00
515.17	9915.00
515.63	10118.00
516.09	10011.00
516.55	9595.00
517.01	9836.00
517.47	10429.00
517.93	10475.00
518.39	10817.00
518.85	11255.00
519.32	11689.00
519.78	11987.00
520.24	12315.00
520.70	12609.00
521.16	13171.00
521.62	13267.00
522.08	13370.00
522.54	13461.00
523.00	13903.00
523.46	14511.00
523.92	14794.00
524.38	15234.00
524.84	15175.00
525.30	15551.00
525.76	15524.00
526.22	15120.00
526.68	14840.00
527.14	15608.00
527.60	16425.00
528.06	16832.00
528.52	17379.00
528.98	17722.00
529.44	17557.00
529.90	17894.00
530.36	18372.00
530.82	18632.00
531.28	18806.00
531.74	18723.00
532.20	18315.00
532.66	18320.00
533.12	18880.00
533.58	19170.00
534.04	19248.00
534.50	19465.00
534.96	19950.00
535.42	20511.00
535.88	20455.00
536.34	20196.00
536.80	19894.00
537.26	20364.00
537.72	20758.00
538.18	20940.00
538.64	20978.00
539.10	20685.00
539.56	20748.00
540.02	20345.00
540.48	20569.00
540.94	20919.00
541.40	21198.00
541.86	21362.00
542.32	21476.00
542.78	21454.00
543.24	21718.00
543.69	22042.00
544.15	22237.00
544.61	22217.00
545.07	22305.00
545.53	22350.00
545.99	22619.00
546.45	22565.00
546.91	22616.00
547.37	22393.00
547.83	22660.00
548.29	23002.00
548.74	23021.00
549.20	23338.00
549.66	23316.00
550.12	23160.00
550.58	23389.00
551.04	23610.00
551.50	23763.00
551.96	24003.00
552.42	23657.00
552.87	23446.00
553.33	23849.00
553.79	24092.00
554.25	24029.00
554.71	24343.00
555.17	24192.00
555.63	24157.00
556.08	23916.00
556.54	23692.00
557.00	23340.00
557.46	23631.00
557.92	23787.00
558.38	23152.00
558.83	22823.00
559.29	23101.00
559.75	22969.00
560.21	23259.00
560.67	23786.00
561.13	23340.00
561.58	23005.00
562.04	23152.00
562.50	23164.00
562.96	23085.00
563.42	23075.00
563.87	22783.00
564.33	22871.00
564.79	22706.00
565.25	22381.00
565.71	21883.00
566.16	22072.00
566.62	22013.00
567.08	22242.00
567.54	22041.00
568.00	21737.00
568.45	21270.00
568.91	21260.00
569.37	21349.00
569.83	20997.00
570.28	20567.00
570.74	20225.00
571.20	20192.00
571.66	20471.00
572.11	20526.00
572.57	20448.00
573.03	20325.00
573.49	20244.00
573.94	20015.00
574.40	19852.00
574.86	19425.00
575.32	19261.00
575.77	19139.00
576.23	19040.00
576.69	19127.00
577.15	19056.00
577.60	18686.00
578.06	18451.00
578.52	18288.00
578.97	18422.00
579.43	18490.00
579.89	18525.00
580.34	18442.00
580.80	18336.00
581.26	18298.00
581.72	18274.00
582.17	18298.00
582.63	18179.00
583.09	18215.00
583.54	18026.00
584.00	18017.00
584.46	17915.00
584.91	17584.00
585.37	17406.00
585.83	17279.00
586.28	17358.00
586.74	17263.00
587.20	17399.00
587.65	17175.00
588.11	16718.00
588.57	16255.00
589.02	15390.00
589.48	15570.00
589.94	16093.00
590.39	16569.00
590.85	16593.00
591.30	16409.00
591.76	16465.00
592.22	16461.00
592.67	16375.00
593.13	16343.00
593.59	16354.00
594.04	16191.00
594.50	16203.00
594.95	16075.00
595.41	16259.00
595.87	16236.00
596.32	16363.00
596.78	16356.00
597.23	16275.00
597.69	16116.00
598.15	15989.00
598.60	16104.00
599.06	16257.00
599.51	16116.00
599.97	16139.00
600.43	16026.00
600.88	15931.00
601.34	15809.00
601.79	15791.00
602.25	15860.00
602.70	15873.00
603.16	16060.00
603.61	15993.00
604.07	15809.00
604.53	15800.00
604.98	15778.00
605.44	15796.00
605.89	15766.00
606.35	15531.00
606.80	15609.00
607.26	15380.00
607.71	15209.00
608.17	15159.00
608.62	15117.00
609.08	15029.00
609.53	14935.00
609.99	14544.00
610.44	14628.00
610.90	14676.00
611.35	14507.00
611.81	14536.00
612.26	14358.00
612.72	14336.00
613.17	14240.00
613.63	13859.00
614.08	13892.00
614.54	14006.00
614.99	13909.00
615.45	13773.00
615.90	13453.00
616.36	13214.00
616.81	13471.00
617.27	13524.00
617.72	13592.00
618.18	13433.00
618.63	13442.00
619.09	13345.00
619.54	13517.00
619.99	13269.00
620.45	13504.00
620.90	13471.00
621.36	13168.00
621.81	13235.00
622.27	13197.00
622.72	13067.00
623.18	12894.00
623.63	12983.00
624.08	12895.00
624.54	12857.00
624.99	12856.00
625.45	12599.00
625.90	12841.00
626.35	12804.00
626.81	12850.00
627.26	12933.00
627.72	12479.00
628.17	12497.00
628.62	12775.00
629.08	12732.00
629.53	12571.00
629.99	12540.00
630.44	12669.00
630.89	12677.00
631.35	12583.00
631.80	12464.00
632.26	12742.00
632.71	12767.00
633.16	12642.00
633.62	12689.00
634.07	12561.00
634.52	12562.00
634.98	12667.00
635.43	12557.00
635.88	12301.00
636.34	12354.00
636.79	12460.00
637.24	12387.00
637.70	12291.00
638.15	12410.00
638.60	12159.00
639.06	12029.00
639.51	11905.00
639.96	11660.00
640.42	11648.00
640.87	11561.00
641.32	11521.00
641.78	11310.00
642.23	11207.00
642.68	11174.00
643.14	11147.00
643.59	11048.00
644.04	10963.00
644.49	10742.00
644.95	10717.00
645.40	10546.00
645.85	10408.00
646.31	10211.00
646.76	10180.00
647.21	10137.00
647.66	9997.00
648.12	9930.00
648.57	9809.00
649.02	9670.00
649.47	9359.00
649.93	9692.00
650.38	9589.00
650.83	9672.00
651.28	9456.00
651.74	9374.00
652.19	9307.00
652.64	9293.00
653.09	9258.00
653.55	9355.00
654.00	9236.00
654.45	9100.00
654.90	8912.00
655.35	8793.00
655.81	8399.00
656.26	7909.00
656.71	8146.00
657.16	8459.00
657.62	8597.00
658.07	8585.00
658.52	8601.00
658.97	8445.00
659.42	8576.00
659.88	8406.00
660.33	8393.00
660.78	8225.00
661.23	8239.00
661.68	8064.00
662.13	8041.00
662.59	7803.00
663.04	7855.00
663.49	7727.00
663.94	7607.00
664.39	7543.00
664.84	7451.00
665.30	7481.00
665.75	7275.00
666.20	7189.00
666.65	7173.00
667.10	7249.00
667.55	7085.00
668.00	6968.00
668.46	7031.00
668.91	6942.00
669.36	7027.00
669.81	6706.00
670.26	6816.00
670.71	6807.00
671.16	6764.00
671.61	6813.00
672.06	6779.00
672.52	6573.00
672.97	6654.00
673.42	6631.00
673.87	6797.00
674.32	6609.00
674.77	6527.00
675.22	6524.00
675.67	6485.00
676.12	6525.00
676.57	6560.00
677.02	6507.00
677.47	6599.00
677.93	6669.00
678.38	6485.00
678.83	6527.00
679.28	6625.00
679.73	6591.00
680.18	6606.00
680.63	6549.00
681.08	6557.00
681.53	6562.00
681.98	6722.00
682.43	6773.00
682.88	6897.00
683.33	6909.00
683.78	6963.00
684.23	7059.00
684.68	7208.00
685.13	7224.00
685.58	7429.00
686.03	7315.00
686.48	7221.00
686.93	6920.00
687.38	7031.00
687.83	7513.00
688.28	7975.00
688.73	8343.00
689.18	8307.00
689.63	8688.00
690.08	9129.00
690.53	9512.00
690.98	9949.00
691.43	10534.00
691.88	10909.00
692.33	11546.00
692.78	11869.00
693.23	12434.00
693.68	12928.00
694.13	13484.00
694.58	14167.00
695.03	15140.00
695.48	15578.00
695.93	16253.00
696.38	17329.00
696.83	18134.00
697.28	18685.00
697.72	19233.00
698.17	19766.00
698.62	20542.00
699.07	21276.00
699.52	21897.00
699.97	22573.00
700.42	23181.00
700.87	23922.00
701.32	24738.00
701.77	25161.00
702.22	25885.00
702.67	26418.00
703.11	27596.00
703.56	28517.00
704.01	29384.00
704.46	30346.00
704.91	31016.00
705.36	31534.00
705.81	31921.00
706.26	32571.00
706.70	33244.00
707.15	33913.00
707.60	34573.00
708.05	35277.00
708.50	35895.00
708.95	36569.00
709.40	36862.00
709.84	37521.00
710.29	38101.00
710.74	38487.00
711.19	39005.00
711.64	39558.00
712.09	39988.00
712.53	40451.00
712.98	41085.00
713.43	41606.00
713.88	41819.00
714.33	42170.00
714.78	41824.00
715.22	42220.00
715.67	42697.00
716.12	42103.00
716.57	40644.00
717.02	39104.00
717.46	38206.00
717.91	37943.00
718.36	37018.00
718.81	36905.00
719.26	37084.00
719.70	37769.00
720.15	38275.00
720.60	40081.00
721.05	42757.00
721.49	45111.00
721.94	45623.00
722.39	45479.00
722.84	44496.00
723.28	42986.00
723.73	42388.00
724.18	42428.00
724.63	43140.00
725.07	43149.00
725.52	43953.00
725.97	44659.00
726.42	45399.00
726.86	45689.00
727.31	45070.00
727.76	45245.00
728.21	46231.00
728.65	46175.00
729.10	46011.00
729.55	46903.00
729.99	48141.00
730.44	48256.00
730.89	48603.00
731.33	49744.00
731.78	50985.00
732.23	51926.00
732.68	52834.00
733.12	53370.00
733.57	54540.00
734.02	55380.00
734.46	55834.00
734.91	55699.00
735.36	55717.00
735.80	56301.00
736.25	56481.00
736.70	57136.00
737.14	57497.00
737.59	57943.00
738.04	57687.00
738.48	57298.00
738.93	57257.00
739.37	57993.00
739.82	58646.00
740.27	59048.00
740.71	59022.00
741.16	58910.00
741.61	58765.00
742.05	59101.00
742.50	59448.00
742.94	60205.00
743.39	60434.00
743.84	60271.00
744.28	60255.00
744.73	60437.00
745.18	60945.00
745.62	61354.00
746.07	61079.00
746.51	61291.00
746.96	61110.00
747.40	61099.00
747.85	60759.00
748.30	60603.00
748.74	60467.00
749.19	60229.00
749.63	60651.00
750.08	60883.00
750.52	60665.00
750.97	60466.00
751.42	60655.00
751.86	60829.00
752.31	60481.00
752.75	60124.00
753.20	60110.00
753.64	60164.00
754.09	60529.00
754.53	60458.00
754.98	60332.00
755.42	60418.00
755.87	60319.00
756.31	60058.00
756.76	59422.00
757.20	58986.00
757.65	58328.00
758.09	57567.00
758.54	55778.00
758.98	49786.00
759.43	39241.00
759.87	27644.00
760.32	20769.00
760.76	20450.00
761.21	25419.00
761.65	31292.00
762.10	33023.00
762.54	31293.00
762.99	29649.00
763.43	30371.00
763.88	32496.00
764.32	35384.00
764.77	38419.00
765.21	41356.00
765.66	43768.00
766.10	46240.00
766.54	48639.00
766.99	50917.00
767.43	52536.00
767.88	53959.00
768.32	55013.00
768.77	55790.00
769.21	56568.00
769.66	57406.00
770.10	57862.00
770.54	58473.00
770.99	58398.00
771.43	58236.00
771.88	58200.00
772.32	58357.00
772.76	58112.00
773.21	58158.00
773.65	57738.00
774.10	57679.00
774.54	57345.00
774.98	57762.00
775.43	58185.00
775.87	58869.00
776.31	59054.00
776.76	58906.00
777.20	58695.00
777.65	57949.00
778.09	57802.00
778.53	57500.00
778.98	57307.00
779.42	57106.00
779.86	57132.00
780.31	57096.00
780.75	57276.00
781.19	57879.00
781.64	58121.00
782.08	58292.00
782.52	57894.00
782.97	57142.00
783.41	56448.00
783.85	56323.00
784.30	55942.00
784.74	55806.00
785.18	55809.00
785.63	55736.00
786.07	55738.00
786.51	55744.00
786.95	56184.00
787.40	55706.00
787.84	55540.00
788.28	55040.00
788.73	54657.00
789.17	53973.00
789.61	53559.00
790.05	53572.00
790.50	53141.00
790.94	52940.00
791.38	52929.00
791.82	53013.00
792.27	53097.00
792.71	53296.00
793.15	53382.00
793.59	53232.00
794.04	52988.00
794.48	52546.00
794.92	52102.00
795.36	51690.00
795.81	51383.00
796.25	51076.00
796.69	51327.00
797.13	52140.00
797.57	52483.00
798.02	52956.00
798.46	53042.00
798.90	52801.00
799.34	51736.00
799.79	51474.00
800.23	50688.00
800.67	50584.00
801.11	50410.00
801.55	49979.00
801.99	49763.00
802.44	49991.00
802.88	50290.00
803.32	50877.00
803.76	51025.00
804.20	50989.00
804.64	50966.00
805.09	51080.00
805.53	50912.00
805.97	50495.00
806.41	49826.00
806.85	49408.00
807.29	48683.00
807.74	48789.00
808.18	48932.00
808.62	48614.00
809.06	48570.00
809.50	48756.00
809.94	48926.00
810.38	49053.00
810.82	48933.00
811.27	48490.00
811.71	47721.00
812.15	46711.00
812.59	45555.00
813.03	44557.00
813.47	42850.00
813.91	41841.00
814.35	41099.00
814.79	40813.00
815.23	40459.00
815.67	39860.00
816.12	40087.00
816.56	39952.00
817.00	40191.00
817.44	40674.00
817.88	40581.00
818.32	39904.00
818.76	40298.00
819.20	40041.00
819.64	40588.00
820.08	41249.00
820.52	41849.00
820.96	42756.00
821.40	42162.00
821.84	40642.00
822.28	38544.00
822.72	38285.00
823.16	38221.00
823.60	40019.00
824.04	42722.00
824.48	43506.00
824.92	43522.00
825.36	43511.00
825.80	42730.00
826.24	42352.00
826.68	41725.00
827.12	41964.00
827.56	40920.00
828.00	41118.00
828.44	41342.00
828.88	41938.00
829.32	42330.00
829.76	42337.00
830.20	43281.00
830.64	42488.00
831.08	42280.00
831.52	41569.00
831.96	41210.00
832.40	40699.00
832.84	41163.00
833.28	41554.00
833.72	42366.00
834.16	43227.00
834.60	44317.00
835.04	44752.00
835.48	45236.00
835.91	44976.00
836.35	44722.00
836.79	44312.00
837.23	44137.00
837.67	43615.00
838.11	43214.00
838.55	43569.00
838.99	43400.00
839.43	44024.00
839.87	44393.00
840.30	44678.00
840.74	45398.00
841.18	45856.00
841.62	46129.00
842.06	46062.00
842.50	45996.00
842.94	45642.00
843.38	44874.00
843.81	44018.00
844.25	43594.00
844.69	43161.00
845.13	43087.00
845.57	43527.00
846.01	43605.00
846.45	43852.00
846.88	44567.00
847.32	45084.00
847.76	45330.00
848.20	45719.00
848.64	45082.00
849.08	44359.00
849.51	44332.00
849.95	43292.00
850.39	43351.00
850.83	43688.00
851.27	43507.00
851.70	42701.00
852.14	42525.00
852.58	41692.00
853.02	40214.00
853.46	39100.00
853.89	39258.00
854.33	39074.00
854.77	40972.00
855.21	43347.00
855.65	44548.00
856.08	45323.00
856.52	45332.00
856.96	44986.00
857.40	44032.00
857.83	43517.00
858.27	42719.00
858.71	41991.00
859.15	41960.00
859.58	42416.00
860.02	42530.00
860.46	43105.00
860.89	44228.00
861.33	44111.00
861.77	44968.00
862.21	45124.00
862.64	45296.00
863.08	45094.00
863.52	44793.00
863.95	43806.00
864.39	43157.00
864.83	41320.00
865.27	39430.00
865.70	39241.00
866.14	38540.00
866.58	38483.00
867.01	40652.00
867.45	41957.00
867.89	42765.00
868.32	43875.00
868.76	44383.00
869.20	44520.00
869.63	44432.00
870.07	43765.00
870.51	42567.00
870.94	41697.00
871.38	41109.00
871.82	40500.00
872.25	40010.00
872.69	39926.00
873.13	40123.00
873.56	40579.00
874.00	41297.00
874.43	41898.00
874.87	42359.00
875.31	42964.00
875.74	43174.00
876.18	43352.00
876.61	43258.00
877.05	42853.00
877.49	42303.00
877.92	41663.00
878.36	40975.00
878.79	40217.00
879.23	39576.00
879.67	38778.00
880.10	38924.00
880.54	38853.00
880.97	39360.00
881.41	40573.00
881.84	41543.00
882.28	42351.00
882.72	43114.00
883.15	43677.00
883.59	43652.00
884.02	43273.00
884.46	42952.00
884.89	42233.00
885.33	41496.00
885.76	40430.00
886.20	39487.00
886.63	38883.00
887.07	38533.00
887.50	38708.00
887.94	38822.00
888.37	39057.00
888.81	39801.00
889.24	40080.00
889.68	40695.00
890.11	41061.00
890.55	41805.00
890.98	41829.00
891.42	41889.00
891.85	41607.00
892.29	41164.00
892.72	39967.00
893.16	38857.00
893.59	37783.00
894.03	36679.00
894.46	35697.00
894.90	34205.00
895.33	32795.00
895.77	32933.00
896.20	32545.00
896.63	32763.00
897.07	32800.00
897.50	32535.00
897.94	32969.00
898.37	34278.00
898.81	31899.00
899.24	32108.00
899.68	33620.00
900.11	32841.00
900.54	31861.00
900.98	31507.00
901.41	31337.00
901.85	31378.00
902.28	31642.00
902.71	31969.00
903.15	33084.00
903.58	34415.00
904.02	34155.00
904.45	34187.00
904.88	33960.00
905.32	33861.00
905.75	33781.00
906.18	32664.00
906.62	32805.00
907.05	31889.00
907.48	32073.00
907.92	31695.00
908.35	31599.00
908.79	31104.00
909.22	30831.00
909.65	30402.00
910.09	30348.00
910.52	29725.00
910.95	30091.00
911.38	30362.00
911.82	29023.00
912.25	29920.00
912.68	30250.00
913.12	30243.00
913.55	30477.00
913.98	31341.00
914.42	32904.00
914.85	32997.00
915.28	31327.00
915.72	30934.00
916.15	30634.00
916.58	30850.00
917.01	29725.00
917.45	28999.00
917.88	29870.00
918.31	30367.00
918.74	31483.00
919.18	31831.00
919.61	31902.00
920.04	32525.00
920.47	32785.00
920.91	33002.00
921.34	33046.00
921.77	33353.00
922.20	33746.00
922.64	33468.00
923.07	33203.00
923.50	32761.00
923.93	32474.00
924.37	31975.00
924.80	31539.00
925.23	31259.00
925.66	29957.00
926.09	28620.00
926.53	27781.00
926.96	26758.00
927.39	25517.00
927.82	24329.00
928.25	23263.00
928.69	22992.00
929.12	22539.00
929.55	21260.00
929.98	20408.00
930.41	19378.00
930.84	18213.00
931.28	16921.00
931.71	15611.00
932.14	13958.00
932.57	13428.00
933.00	12819.00
933.43	12201.00
933.86	11355.00
934.30	11142.00
934.73	12456.00
935.16	11815.00
935.59	11014.00
936.02	11716.00
936.45	11313.00
936.88	11448.00
937.31	12589.00
937.75	13236.00
938.18	13980.00
938.61	14652.00
939.04	15407.00
939.47	15029.00
939.90	13975.00
940.33	13537.00
940.76	12528.00
941.19	12007.00
941.62	11698.00
942.05	11583.00
942.48	10212.00
942.91	10417.00
943.35	11092.00
943.78	10231.00
944.21	10180.00
944.64	11112.00
945.07	11333.00
945.50	11109.00
945.93	11375.00
946.36	11831.00
946.79	12178.00
947.22	13064.00
947.65	12619.00
948.08	12182.00
948.51	13030.00
948.94	13294.00
949.37	12634.00
949.80	11986.00
950.23	12381.00
950.66	13047.00
951.09	12893.00
951.52	12361.00
951.95	12392.00
952.38	12887.00
952.81	13641.00
953.24	14539.00
953.67	14649.00
954.10	14414.00
954.53	15212.00
954.96	15016.00
955.39	15475.00
955.82	16421.00
956.25	15665.00
956.68	16078.00
957.11	16598.00
957.53	15889.00
957.96	15799.00
958.39	15501.00
958.82	14816.00
959.25	15359.00
959.68	16242.00
960.11	16468.00
960.54	16674.00
960.97	17640.00
961.40	18248.00
961.83	17898.00
962.26	18384.00
962.68	19837.00
963.11	20085.00
963.54	20083.00
963.97	20515.00
964.40	20319.00
964.83	20900.00
965.26	21166.00
965.69	20775.00
966.11	20751.00
966.54	20792.00
966.97	21839.00
967.40	21857.00
967.83	21817.00
968.26	21997.00
968.69	22105.00
969.11	22354.00
969.54	22197.00
969.97	22238.00
970.40	22846.00
970.83	22866.00
971.26	22988.00
971.68	22945.00
972.11	23195.00
972.54	23509.00
972.97	23373.00
973.40	22953.00
973.82	22831.00
974.25	22960.00
974.68	22572.00
975.11	22467.00
975.54	21785.00
975.96	21455.00
976.39	21541.00
976.82	21571.00
977.25	21531.00
977.67	21233.00
978.10	21407.00
978.53	21863.00
978.96	22367.00
979.38	22638.00
979.81	22925.00
980.24	23982.00
980.67	24277.00
981.09	24683.00
981.52	24843.00
981.95	24909.00
982.38	24968.00
982.80	25071.00
983.23	25473.00
983.66	25673.00
984.08	25253.00
984.51	25043.00
984.94	24874.00
985.37	24489.00
985.79	23987.00
986.22	23533.00
986.65	23167.00
987.07	23053.00
987.50	22966.00
987.93	22941.00
988.35	23078.00
988.78	23255.00
989.21	23373.00
989.63	23796.00
990.06	24153.00
990.49	24491.00
990.91	25071.00
991.34	25181.00
991.77	25148.00
992.19	25256.00
992.62	25041.00
993.05	25145.00
993.47	24777.00
993.90	24433.00
994.32	24085.00
994.75	23743.00
995.18	23187.00
995.60	22999.00
996.03	22633.00
996.45	22353.00
996.88	22174.00
997.31	22045.00
997.73	22125.00
998.16	22151.00
998.58	22208.00
999.01	22392.00
999.44	22589.00
999.86	23030.00
1000.29	23299.00
1000.71	23248.00
1001.14	23509.00
1001.56	23277.00
1001.99	23271.00
1002.41	22838.00
1002.84	22320.00
1003.27	22005.00
1003.69	21430.00
1004.12	20940.00
1004.54	20630.00
1004.97	20251.00
1005.39	20068.00
1005.82	19991.00
1006.24	19828.00
1006.67	19711.00
1007.09	19640.00
1007.52	19626.00
1007.94	19723.00
1008.37	19991.00
1008.79	20005.00
1009.22	19879.00
1009.64	19910.00
1010.07	19958.00
1010.49	20079.00
1010.92	20121.00
1011.34	20293.00
1011.77	20142.00
1012.19	19927.00
1012.62	19900.00
1013.04	19565.00
1013.46	19240.00
1013.89	18720.00
1014.31	18532.00
1014.74	18148.00
1015.16	17819.00
1015.59	17771.00
1016.01	17798.00
1016.44	17808.00
1016.86	19045.00
1017.28	17998.00
1017.71	18075.00
1018.13	18475.00
1018.56	18533.00
1018.98	18559.00
1019.40	18725.00
1019.83	18709.00
1020.25	18908.00
1020.68	19113.00
1021.10	19293.00
1021.52	19235.00
1021.95	19623.00
1022.37	19401.00
1022.79	19345.00
1023.22	19153.00
1023.64	19013.00
1024.07	18738.00
1024.49	18423.00
1024.91	18224.00
1025.34	18007.00
1025.76	17869.00
1026.18	17565.00
1026.61	17524.00
1027.03	17531.00
1027.45	17596.00
1027.88	17525.00
1028.30	17712.00
1028.72	17693.00
1029.15	17810.00
1029.57	17854.00
1029.99	18137.00
1030.41	17847.00
1030.84	17873.00
1031.26	17870.00
1031.68	17658.00
1032.11	17526.00
1032.53	17335.00
1032.95	17121.00
1033.37	16845.00
1033.80	16683.00
1034.22	16192.00
1034.64	16147.00
1035.06	15763.00
1035.49	15670.00
1035.91	15449.00
1036.33	15173.00
1036.75	15183.00
1037.18	14863.00
1037.60	14955.00
1038.02	14932.00
1038.44	14869.00
1038.87	15026.00
1039.29	15003.00
1039.71	15009.00
1040.13	14981.00
1040.55	15147.00
1040.98	15032.00
1041.40	14964.00
1041.82	14871.00
1042.24	14637.00
1042.66	14545.00
1043.09	14245.00
1043.51	14026.00
1043.93	13721.00
1044.35	13579.00
1044.77	13401.00
1045.20	13299.00
1045.62	13029.00
1046.04	12962.00
1046.46	12771.00
1046.88	12678.00
1047.30	12570.00
1047.72	12405.00
1048.15	12293.00
1048.57	12230.00
1048.99	12236.00
1049.41	12157.00
1049.83	12098.00
1050.25	12112.00
1050.67	12182.00
1051.09	11960.00
1051.52	12027.00
1051.94	11777.00
1052.36	11841.00
1052.78	11784.00
1053.20	11747.00
1053.62	11647.00
1054.04	11611.00
1054.46	11453.00
1054.88	11333.00
1055.30	11155.00
1055.72	11083.00
1056.14	10965.00
1056.57	10956.00
1056.99	10619.00
1057.41	10402.00
1057.83	10370.00
1058.25	10173.00
1058.67	10087.00
1059.09	9978.00
1059.51	9877.00
1059.93	9703.00
1060.35	9650.00
1060.77	9588.00
1061.19	9652.00
1061.61	9521.00
1062.03	9489.00
1062.45	9419.00
1062.87	9548.00
1063.29	9404.00
1063.71	9320.00
1064.13	9285.00
1064.55	9233.00
1064.97	9219.00
1065.39	9079.00
1065.81	9047.00
1066.23	8936.00
1066.65	8935.00
1067.07	8839.00
1067.49	8639.00
1067.91	8478.00
1068.33	8366.00
1068.75	8473.00
1069.17	8426.00
1069.59	8289.00
1070.00	8134.00
1070.42	8140.00
1070.84	7947.00
1071.26	7951.00
1071.68	7985.00
1072.10	7923.00
1072.52	7905.00
1072.94	7779.00
1073.36	7759.00
1073.78	7730.00
1074.20	7786.00
1074.62	7743.00
1075.03	7753.00
1075.45	7699.00
1075.87	7666.00
1076.29	7587.00
1076.71	7635.00
1077.13	7674.00
1077.55	7446.00
1077.97	7382.00
1078.38	7353.00
1078.80	7285.00
1079.22	7255.00
1079.64	7033.00
1080.06	7049.00
1080.48	6977.00
1080.89	6781.00
1081.31	6836.00
1081.73	6747.00
1082.15	6705.00
1082.57	6797.00
1082.99	6624.00
1083.40	6567.00
1083.82	6662.00
1084.24	6477.00
1084.66	6563.00
1085.08	6380.00
1085.49	6364.00
1085.91	6502.00
1086.33	7663.00
1086.75	6443.00
1087.17	6379.00
1087.58	6301.00
1088.00	6388.00
1088.42	6306.00
1088.84	6239.00
1089.25	6185.00
1089.67	6095.00
1090.09	6067.00
1090.51	5940.00
1090.92	6017.00
1091.34	5849.00
1091.76	5795.00
1092.18	5674.00
1092.59	5610.00
1093.01	5577.00
1093.43	5587.00
1093.84	5533.00
1094.26	5580.00
1094.68	5455.00
1095.10	5393.00
1095.51	5427.00
1095.93	5318.00
1096.35	5336.00
1096.76	5384.00
1097.18	5334.00
1097.60	5286.00
1098.01	5231.00
1098.43	5199.00
1098.85	5144.00
1099.26	5069.00
1099.68	5044.00
1100.10	4923.00
1100.51	4931.00
1100.93	4838.00
1101.35	4873.00
1101.76	4790.00
1102.18	5289.00
1102.60	4729.00
1103.01	4625.00
1103.43	4677.00
1103.84	4603.00
1104.26	4583.00
1104.68	4595.00
1105.09	4569.00
1105.51	4525.00
1105.92	4579.00
1106.34	4409.00
1106.76	4447.00
1107.17	4445.00
1107.59	4343.00
1108.00	4217.00
1108.42	4257.00
1108.83	4183.00
1109.25	4122.00
1109.67	4140.00
1110.08	4103.00
1110.50	4068.00
1110.91	4020.00
1111.33	3947.00
1111.74	3982.00
1112.16	3991.00
1112.57	3944.00
1112.99	3829.00
1113.41	3818.00
1113.82	3745.00
1114.24	3701.00
1114.65	3630.00
1115.07	3493.00
1115.48	3393.00
1115.90	2180.00
1116.31	2210.00
1116.73	2218.00
1117.14	2214.00
>>>>>End Processed Spectral Data<<<<<
