SpectraSuite Data File
++++++++++++++++++++++++++++++++++++
Date: Tue May 29 12:59:28 EEST 2018
User: CanSEE
Dark Spectrum Present: No
Reference Spectrum Present: No
Number of Sampled Component Spectra: 1
Spectrometers: MAYP11278
Integration Time (usec): 250000 (MAYP11278)
Spectra Averaged: 1 (MAYP11278)
Boxcar Smoothing: 0 (MAYP11278)
Correct for Electrical Dark: No (MAYP11278)
Strobe/Lamp Enabled: No (MAYP11278)
Correct for Detector Non-linearity: No (MAYP11278)
Correct for Stray Light: No (MAYP11278)
Number of Pixels in Processed Spectrum: 2068
>>>>>Begin Processed Spectral Data<<<<<
187.82	2320.00
188.30	2223.00
188.78	2207.00
189.26	2198.00
189.73	2987.00
190.21	3118.00
190.69	3190.00
191.17	3217.00
191.64	3252.00
192.12	3237.00
192.60	3205.00
193.07	3160.00
193.55	3198.00
194.03	3191.00
194.51	3228.00
194.98	3203.00
195.46	3230.00
195.94	3210.00
196.42	3218.00
196.89	3296.00
197.37	3214.00
197.85	3162.00
198.32	3196.00
198.80	3206.00
199.28	3254.00
199.76	3262.00
200.23	3205.00
200.71	3206.00
201.19	3247.00
201.66	3245.00
202.14	3238.00
202.62	3197.00
203.09	3230.00
203.57	3194.00
204.05	3251.00
204.53	3244.00
205.00	3229.00
205.48	3197.00
205.96	3270.00
206.43	3210.00
206.91	3249.00
207.39	3265.00
207.86	3186.00
208.34	3247.00
208.82	3190.00
209.29	3229.00
209.77	3247.00
210.25	3210.00
210.72	3207.00
211.20	3262.00
211.68	3238.00
212.15	3201.00
212.63	3253.00
213.11	3275.00
213.58	3201.00
214.06	3291.00
214.53	3207.00
215.01	3245.00
215.49	3243.00
215.96	3247.00
216.44	3247.00
216.92	3251.00
217.39	3205.00
217.87	3233.00
218.35	3263.00
218.82	3208.00
219.30	3200.00
219.77	3204.00
220.25	3243.00
220.73	3283.00
221.20	3191.00
221.68	3204.00
222.15	3210.00
222.63	3273.00
223.11	3190.00
223.58	3251.00
224.06	3200.00
224.53	3199.00
225.01	3146.00
225.49	3232.00
225.96	3205.00
226.44	3252.00
226.91	3274.00
227.39	3228.00
227.87	3223.00
228.34	3242.00
228.82	3219.00
229.29	3221.00
229.77	3217.00
230.24	3188.00
230.72	3197.00
231.20	3276.00
231.67	3217.00
232.15	3157.00
232.62	3207.00
233.10	3211.00
233.57	3208.00
234.05	3370.00
234.53	3241.00
235.00	3190.00
235.48	3213.00
235.95	3201.00
236.43	3270.00
236.90	3286.00
237.38	3192.00
237.85	3246.00
238.33	3208.00
238.80	3204.00
239.28	3218.00
239.75	3184.00
240.23	3234.00
240.71	3300.00
241.18	3189.00
241.66	3212.00
242.13	3278.00
242.61	3255.00
243.08	3200.00
243.56	3189.00
244.03	3269.00
244.51	3275.00
244.98	3203.00
245.46	3279.00
245.93	4197.00
246.41	3184.00
246.88	3214.00
247.36	3209.00
247.83	3200.00
248.31	3280.00
248.78	3162.00
249.26	3227.00
249.73	3261.00
250.21	3246.00
250.68	3312.00
251.16	3219.00
251.63	3320.00
252.10	3261.00
252.58	3250.00
253.05	3288.00
253.53	3212.00
254.00	3239.00
254.48	3251.00
254.95	3224.00
255.43	3280.00
255.90	3225.00
256.38	3256.00
256.85	3225.00
257.33	3265.00
257.80	3337.00
258.27	3266.00
258.75	3224.00
259.22	3240.00
259.70	3275.00
260.17	3305.00
260.65	3246.00
261.12	3207.00
261.59	3273.00
262.07	3225.00
262.54	3246.00
263.02	3233.00
263.49	3185.00
263.97	3244.00
264.44	3276.00
264.91	3220.00
265.39	3210.00
265.86	3297.00
266.34	3263.00
266.81	3222.00
267.28	3292.00
267.76	3254.00
268.23	3237.00
268.71	3178.00
269.18	3209.00
269.65	3174.00
270.13	3257.00
270.60	3249.00
271.08	3219.00
271.55	3212.00
272.02	3224.00
272.50	3210.00
272.97	3175.00
273.44	3261.00
273.92	3390.00
274.39	3261.00
274.87	3258.00
275.34	3229.00
275.81	3217.00
276.29	3241.00
276.76	3202.00
277.23	3147.00
277.71	3155.00
278.18	3102.00
278.65	3290.00
279.13	3143.00
279.60	3211.00
280.07	3481.00
280.55	3431.00
281.02	3527.00
281.50	3320.00
281.97	3340.00
282.44	3283.00
282.91	3279.00
283.39	3308.00
283.86	3253.00
284.33	3256.00
284.81	3275.00
285.28	3263.00
285.75	3264.00
286.23	3268.00
286.70	3211.00
287.17	3229.00
287.65	3304.00
288.12	3238.00
288.59	3234.00
289.07	3185.00
289.54	3292.00
290.01	3200.00
290.48	3268.00
290.96	3224.00
291.43	3283.00
291.90	3280.00
292.38	3230.00
292.85	3295.00
293.32	3205.00
293.79	3278.00
294.27	3258.00
294.74	3262.00
295.21	3290.00
295.69	3252.00
296.16	3314.00
296.63	3294.00
297.10	3283.00
297.58	3274.00
298.05	3273.00
298.52	3237.00
298.99	3304.00
299.47	3269.00
299.94	3273.00
300.41	3188.00
300.88	3299.00
301.36	3302.00
301.83	3311.00
302.30	3204.00
302.77	3275.00
303.25	3286.00
303.72	3217.00
304.19	3237.00
304.66	3216.00
305.13	3258.00
305.61	3284.00
306.08	3273.00
306.55	3300.00
307.02	3219.00
307.49	3238.00
307.97	3248.00
308.44	3225.00
308.91	3258.00
309.38	3279.00
309.86	3234.00
310.33	3263.00
310.80	3265.00
311.27	3233.00
311.74	3281.00
312.21	3224.00
312.69	3351.00
313.16	3202.00
313.63	3259.00
314.10	3280.00
314.57	3268.00
315.05	3221.00
315.52	3283.00
315.99	3299.00
316.46	3260.00
316.93	3298.00
317.40	3286.00
317.88	3383.00
318.35	3269.00
318.82	3293.00
319.29	3196.00
319.76	3301.00
320.23	3366.00
320.70	3298.00
321.18	3282.00
321.65	3205.00
322.12	3256.00
322.59	3342.00
323.06	3238.00
323.53	3400.00
324.00	3245.00
324.48	3275.00
324.95	3270.00
325.42	3276.00
325.89	3276.00
326.36	3247.00
326.83	3347.00
327.30	3310.00
327.77	3303.00
328.24	3278.00
328.72	3296.00
329.19	3253.00
329.66	3259.00
330.13	3285.00
330.60	3305.00
331.07	3301.00
331.54	3361.00
332.01	3258.00
332.48	3349.00
332.95	3355.00
333.43	3315.00
333.90	3355.00
334.37	3330.00
334.84	3283.00
335.31	3436.00
335.78	3215.00
336.25	3290.00
336.72	3273.00
337.19	3294.00
337.66	3259.00
338.13	3245.00
338.60	3321.00
339.07	3338.00
339.54	3202.00
340.01	3197.00
340.49	3227.00
340.96	3278.00
341.43	3286.00
341.90	3214.00
342.37	3255.00
342.84	3271.00
343.31	3253.00
343.78	3215.00
344.25	3223.00
344.72	3203.00
345.19	3228.00
345.66	3288.00
346.13	3230.00
346.60	3218.00
347.07	3286.00
347.54	3251.00
348.01	3314.00
348.48	3280.00
348.95	3217.00
349.42	3289.00
349.89	3284.00
350.36	3255.00
350.83	3219.00
351.30	3247.00
351.77	3304.00
352.24	3269.00
352.71	3219.00
353.18	3226.00
353.65	3231.00
354.12	3258.00
354.59	3254.00
355.06	3267.00
355.53	3317.00
356.00	3223.00
356.47	3307.00
356.94	3236.00
357.41	3325.00
357.88	3263.00
358.35	3217.00
358.82	3283.00
359.28	3224.00
359.75	3232.00
360.22	3286.00
360.69	3313.00
361.16	3257.00
361.63	3229.00
362.10	3265.00
362.57	3252.00
363.04	3234.00
363.51	3298.00
363.98	3267.00
364.45	3243.00
364.92	3315.00
365.39	3218.00
365.86	3192.00
366.32	3252.00
366.79	3278.00
367.26	3858.00
367.73	3259.00
368.20	3241.00
368.67	3287.00
369.14	3236.00
369.61	3256.00
370.08	3264.00
370.55	3229.00
371.02	3764.00
371.48	3279.00
371.95	3227.00
372.42	3211.00
372.89	3270.00
373.36	3269.00
373.83	3195.00
374.30	3235.00
374.77	3274.00
375.23	3206.00
375.70	3327.00
376.17	3238.00
376.64	3238.00
377.11	3235.00
377.58	3287.00
378.05	3307.00
378.51	3267.00
378.98	3259.00
379.45	3238.00
379.92	3285.00
380.39	3359.00
380.86	3243.00
381.33	3322.00
381.79	3318.00
382.26	3237.00
382.73	3287.00
383.20	3246.00
383.67	3314.00
384.14	3202.00
384.60	3458.00
385.07	3273.00
385.54	3279.00
386.01	3275.00
386.48	3351.00
386.94	3203.00
387.41	3231.00
387.88	3298.00
388.35	3284.00
388.82	3291.00
389.28	3226.00
389.75	3266.00
390.22	3267.00
390.69	3292.00
391.16	3296.00
391.62	3246.00
392.09	3272.00
392.56	3256.00
393.03	3227.00
393.50	3392.00
393.96	3272.00
394.43	3321.00
394.90	3256.00
395.37	3298.00
395.83	3461.00
396.30	3226.00
396.77	3288.00
397.24	3325.00
397.70	3211.00
398.17	3281.00
398.64	3281.00
399.11	3239.00
399.57	3283.00
400.04	3222.00
400.51	3252.00
400.98	3276.00
401.44	3293.00
401.91	3260.00
402.38	3296.00
402.84	3256.00
403.31	3330.00
403.78	3261.00
404.25	3309.00
404.71	3309.00
405.18	3334.00
405.65	3244.00
406.12	3324.00
406.58	3288.00
407.05	3378.00
407.52	3277.00
407.98	3892.00
408.45	3278.00
408.92	3208.00
409.38	3322.00
409.85	3239.00
410.32	3314.00
410.78	3248.00
411.25	3292.00
411.72	3272.00
412.18	3198.00
412.65	3260.00
413.12	3248.00
413.59	3283.00
414.05	3286.00
414.52	3334.00
414.98	3225.00
415.45	3319.00
415.92	3312.00
416.38	3256.00
416.85	3287.00
417.32	3291.00
417.78	3297.00
418.25	3288.00
418.72	3238.00
419.18	3318.00
419.65	3258.00
420.12	3312.00
420.58	3203.00
421.05	3269.00
421.51	3265.00
421.98	3303.00
422.45	3246.00
422.91	3243.00
423.38	3283.00
423.85	3304.00
424.31	3277.00
424.78	3316.00
425.24	3261.00
425.71	3302.00
426.18	3243.00
426.64	3334.00
427.11	3246.00
427.57	3289.00
428.04	3219.00
428.51	3312.00
428.97	3292.00
429.44	3259.00
429.90	3225.00
430.37	3420.00
430.83	3217.00
431.30	3278.00
431.77	3334.00
432.23	3307.00
432.70	3289.00
433.16	3215.00
433.63	3295.00
434.09	3240.00
434.56	3300.00
435.03	3261.00
435.49	3296.00
435.96	3271.00
436.42	3246.00
436.89	3334.00
437.35	3271.00
437.82	3272.00
438.28	3255.00
438.75	3250.00
439.21	3433.00
439.68	3309.00
440.14	3303.00
440.61	3321.00
441.07	3236.00
441.54	3271.00
442.00	3399.00
442.47	3260.00
442.94	3300.00
443.40	3287.00
443.87	3210.00
444.33	3332.00
444.80	3274.00
445.26	3268.00
445.73	3272.00
446.19	3287.00
446.65	3268.00
447.12	3278.00
447.58	3232.00
448.05	3224.00
448.51	3293.00
448.98	3276.00
449.44	3290.00
449.91	3219.00
450.37	3236.00
450.84	3274.00
451.30	3281.00
451.77	3311.00
452.23	3246.00
452.70	3290.00
453.16	3253.00
453.62	3251.00
454.09	3219.00
454.55	3270.00
455.02	3228.00
455.48	3240.00
455.95	3261.00
456.41	3252.00
456.88	3307.00
457.34	3249.00
457.80	3225.00
458.27	3200.00
458.73	3263.00
459.20	3252.00
459.66	3243.00
460.13	3201.00
460.59	3184.00
461.05	3249.00
461.52	3240.00
461.98	3200.00
462.45	3147.00
462.91	3237.00
463.37	3155.00
463.84	3192.00
464.30	3193.00
464.76	3133.00
465.23	3174.00
465.69	3199.00
466.16	3206.00
466.62	3171.00
467.08	3130.00
467.55	3153.00
468.01	3200.00
468.48	3191.00
468.94	3155.00
469.40	3082.00
469.87	3165.00
470.33	3131.00
470.79	3152.00
471.26	3125.00
471.72	3104.00
472.18	3099.00
472.65	3111.00
473.11	3167.00
473.57	3136.00
474.04	3120.00
474.50	3102.00
474.96	3092.00
475.43	3122.00
475.89	3122.00
476.35	3132.00
476.82	3096.00
477.28	3120.00
477.74	3144.00
478.21	3108.00
478.67	3127.00
479.13	3099.00
479.59	3171.00
480.06	3122.00
480.52	3106.00
480.98	3074.00
481.45	3118.00
481.91	3120.00
482.37	3052.00
482.84	3098.00
483.30	3034.00
483.76	3095.00
484.22	3148.00
484.69	3078.00
485.15	3082.00
485.61	3018.00
486.07	3089.00
486.54	3033.00
487.00	3127.00
487.46	3046.00
487.92	3067.00
488.39	3075.00
488.85	3138.00
489.31	3046.00
489.77	3088.00
490.24	3062.00
490.70	3094.00
491.16	3050.00
491.62	3082.00
492.09	3006.00
492.55	3133.00
493.01	3114.00
493.47	3110.00
493.94	3065.00
494.40	3091.00
494.86	3050.00
495.32	3067.00
495.78	3132.00
496.25	3105.00
496.71	3121.00
497.17	3218.00
497.63	3183.00
498.09	3102.00
498.56	3167.00
499.02	3154.00
499.48	3237.00
499.94	3128.00
500.40	3144.00
500.87	3178.00
501.33	3146.00
501.79	3190.00
502.25	3194.00
502.71	3451.00
503.17	3198.00
503.64	3222.00
504.10	3202.00
504.56	3265.00
505.02	3257.00
505.48	3259.00
505.94	3295.00
506.40	3327.00
506.87	3335.00
507.33	3354.00
507.79	3359.00
508.25	3339.00
508.71	3371.00
509.17	3377.00
509.63	3424.00
510.10	3472.00
510.56	3451.00
511.02	3542.00
511.48	3627.00
511.94	3600.00
512.40	3598.00
512.86	3635.00
513.32	3698.00
513.78	3619.00
514.25	3793.00
514.71	4403.00
515.17	3799.00
515.63	3865.00
516.09	3942.00
516.55	3879.00
517.01	3952.00
517.47	4000.00
517.93	4072.00
518.39	4238.00
518.85	4186.00
519.32	4310.00
519.78	4387.00
520.24	4440.00
520.70	4560.00
521.16	4616.00
521.62	4735.00
522.08	4786.00
522.54	4767.00
523.00	4976.00
523.46	5027.00
523.92	5086.00
524.38	5258.00
524.84	5278.00
525.30	5329.00
525.76	5383.00
526.22	5255.00
526.68	5258.00
527.14	5416.00
527.60	5485.00
528.06	5773.00
528.52	5833.00
528.98	5875.00
529.44	5842.00
529.90	5953.00
530.36	6041.00
530.82	6111.00
531.28	6162.00
531.74	6164.00
532.20	6107.00
532.66	6107.00
533.12	6247.00
533.58	6308.00
534.04	6358.00
534.50	6496.00
534.96	6464.00
535.42	6563.00
535.88	6593.00
536.34	6559.00
536.80	6446.00
537.26	6647.00
537.72	6647.00
538.18	6715.00
538.64	6768.00
539.10	6666.00
539.56	6861.00
540.02	6550.00
540.48	6755.00
540.94	6691.00
541.40	6730.00
541.86	6825.00
542.32	6838.00
542.78	6836.00
543.24	6931.00
543.69	6892.00
544.15	7088.00
544.61	6950.00
545.07	7043.00
545.53	7027.00
545.99	7093.00
546.45	6974.00
546.91	7100.00
547.37	7058.00
547.83	7062.00
548.29	7156.00
548.74	7159.00
549.20	7190.00
549.66	7307.00
550.12	7221.00
550.58	7184.00
551.04	7355.00
551.50	7230.00
551.96	7399.00
552.42	7289.00
552.87	7236.00
553.33	7373.00
553.79	7343.00
554.25	7380.00
554.71	7387.00
555.17	7320.00
555.63	7372.00
556.08	7250.00
556.54	7225.00
557.00	7036.00
557.46	7219.00
557.92	7261.00
558.38	7007.00
558.83	6974.00
559.29	6946.00
559.75	6944.00
560.21	6849.00
560.67	7139.00
561.13	7004.00
561.58	6858.00
562.04	6861.00
562.50	6918.00
562.96	6872.00
563.42	6837.00
563.87	6655.00
564.33	6658.00
564.79	6678.00
565.25	6536.00
565.71	6430.00
566.16	6471.00
566.62	6414.00
567.08	6474.00
567.54	6383.00
568.00	6300.00
568.45	6135.00
568.91	6080.00
569.37	6204.00
569.83	6021.00
570.28	5970.00
570.74	5927.00
571.20	5844.00
571.66	5776.00
572.11	5800.00
572.57	5822.00
573.03	5718.00
573.49	5683.00
573.94	5631.00
574.40	5579.00
574.86	5538.00
575.32	5482.00
575.77	5431.00
576.23	5313.00
576.69	5456.00
577.15	5347.00
577.60	5254.00
578.06	5192.00
578.52	5264.00
578.97	5256.00
579.43	5188.00
579.89	5148.00
580.34	5165.00
580.80	5149.00
581.26	5187.00
581.72	5058.00
582.17	5092.00
582.63	5014.00
583.09	5032.00
583.54	5066.00
584.00	4959.00
584.46	4991.00
584.91	4900.00
585.37	4987.00
585.83	4802.00
586.28	4765.00
586.74	4839.00
587.20	4828.00
587.65	4871.00
588.11	4712.00
588.57	4674.00
589.02	4523.00
589.48	4548.00
589.94	4595.00
590.39	4691.00
590.85	4565.00
591.30	4676.00
591.76	4694.00
592.22	4624.00
592.67	4608.00
593.13	4657.00
593.59	4692.00
594.04	4568.00
594.50	4610.00
594.95	4619.00
595.41	4588.00
595.87	4565.00
596.32	4623.00
596.78	4635.00
597.23	4658.00
597.69	4546.00
598.15	4497.00
598.60	4550.00
599.06	4631.00
599.51	4514.00
599.97	4530.00
600.43	4535.00
600.88	4572.00
601.34	4508.00
601.79	4453.00
602.25	4599.00
602.70	4483.00
603.16	4457.00
603.61	4489.00
604.07	4411.00
604.53	4437.00
604.98	4471.00
605.44	4434.00
605.89	4344.00
606.35	4365.00
606.80	4385.00
607.26	4370.00
607.71	4383.00
608.17	4359.00
608.62	4295.00
609.08	4413.00
609.53	4312.00
609.99	4211.00
610.44	4192.00
610.90	4242.00
611.35	4186.00
611.81	4256.00
612.26	4179.00
612.72	4097.00
613.17	4277.00
613.63	4067.00
614.08	4031.00
614.54	4075.00
614.99	4051.00
615.45	4067.00
615.90	4056.00
616.36	4001.00
616.81	3952.00
617.27	3994.00
617.72	4013.00
618.18	4031.00
618.63	3990.00
619.09	4029.00
619.54	4038.00
619.99	3972.00
620.45	4000.00
620.90	4037.00
621.36	3889.00
621.81	3971.00
622.27	3977.00
622.72	3940.00
623.18	3902.00
623.63	3851.00
624.08	3908.00
624.54	3843.00
624.99	3819.00
625.45	3881.00
625.90	3869.00
626.35	3869.00
626.81	3903.00
627.26	3837.00
627.72	3842.00
628.17	3898.00
628.62	3816.00
629.08	3835.00
629.53	3846.00
629.99	3761.00
630.44	3833.00
630.89	3884.00
631.35	3864.00
631.80	3849.00
632.26	3824.00
632.71	3868.00
633.16	3847.00
633.62	3790.00
634.07	3794.00
634.52	3745.00
634.98	3804.00
635.43	3767.00
635.88	3765.00
636.34	3817.00
636.79	3778.00
637.24	3735.00
637.70	3791.00
638.15	3787.00
638.60	3708.00
639.06	3709.00
639.51	3683.00
639.96	3646.00
640.42	3654.00
640.87	3651.00
641.32	3628.00
641.78	3569.00
642.23	3566.00
642.68	3558.00
643.14	3551.00
643.59	3573.00
644.04	3525.00
644.49	3462.00
644.95	3486.00
645.40	3464.00
645.85	3456.00
646.31	3437.00
646.76	3482.00
647.21	3462.00
647.66	3399.00
648.12	3416.00
648.57	3363.00
649.02	3415.00
649.47	3383.00
649.93	3542.00
650.38	3314.00
650.83	3333.00
651.28	3341.00
651.74	3357.00
652.19	3291.00
652.64	3336.00
653.09	3305.00
653.55	3339.00
654.00	3353.00
654.45	3348.00
654.90	3279.00
655.35	3250.00
655.81	3305.00
656.26	3219.00
656.71	3235.00
657.16	3279.00
657.62	3321.00
658.07	3264.00
658.52	3261.00
658.97	3206.00
659.42	3430.00
659.88	3240.00
660.33	3293.00
660.78	3253.00
661.23	3151.00
661.68	3198.00
662.13	3203.00
662.59	3109.00
663.04	3171.00
663.49	3163.00
663.94	3164.00
664.39	3154.00
664.84	3160.00
665.30	3159.00
665.75	3116.00
666.20	3161.00
666.65	3144.00
667.10	3246.00
667.55	3180.00
668.00	3082.00
668.46	3130.00
668.91	3092.00
669.36	3186.00
669.81	3076.00
670.26	3136.00
670.71	3169.00
671.16	3121.00
671.61	3201.00
672.06	3202.00
672.52	3101.00
672.97	3144.00
673.42	3153.00
673.87	3232.00
674.32	3121.00
674.77	3140.00
675.22	3080.00
675.67	3104.00
676.12	3117.00
676.57	3085.00
677.02	3113.00
677.47	3112.00
677.93	3227.00
678.38	3080.00
678.83	3130.00
679.28	3132.00
679.73	3099.00
680.18	3134.00
680.63	3123.00
681.08	3051.00
681.53	3061.00
681.98	3105.00
682.43	3157.00
682.88	3155.00
683.33	3205.00
683.78	3181.00
684.23	3221.00
684.68	3193.00
685.13	3208.00
685.58	3230.00
686.03	3208.00
686.48	3188.00
686.93	3178.00
687.38	3189.00
687.83	3265.00
688.28	3302.00
688.73	3463.00
689.18	3399.00
689.63	3303.00
690.08	3460.00
690.53	3475.00
690.98	3486.00
691.43	3619.00
691.88	3616.00
692.33	3803.00
692.78	3872.00
693.23	4009.00
693.68	4127.00
694.13	4173.00
694.58	4346.00
695.03	4638.00
695.48	4658.00
695.93	4861.00
696.38	5092.00
696.83	5266.00
697.28	5476.00
697.72	5678.00
698.17	5834.00
698.62	6121.00
699.07	6289.00
699.52	6474.00
699.97	6864.00
700.42	7110.00
700.87	7384.00
701.32	7664.00
701.77	7730.00
702.22	8149.00
702.67	8450.00
703.11	8820.00
703.56	9134.00
704.01	9434.00
704.46	9823.00
704.91	10357.00
705.36	10435.00
705.81	10782.00
706.26	10991.00
706.70	11337.00
707.15	11680.00
707.60	11961.00
708.05	12495.00
708.50	12800.00
708.95	12995.00
709.40	13355.00
709.84	13767.00
710.29	14119.00
710.74	14341.00
711.19	14834.00
711.64	15172.00
712.09	15332.00
712.53	15788.00
712.98	16151.00
713.43	16377.00
713.88	16778.00
714.33	17088.00
714.78	17124.00
715.22	17370.00
715.67	17709.00
716.12	17687.00
716.57	17371.00
717.02	16982.00
717.46	16701.00
717.91	16902.00
718.36	16541.00
718.81	16557.00
719.26	16636.00
719.70	17061.00
720.15	17655.00
720.60	18317.00
721.05	19852.00
721.49	20896.00
721.94	21653.00
722.39	21763.00
722.84	21516.00
723.28	20811.00
723.73	20639.00
724.18	20835.00
724.63	21398.00
725.07	21636.00
725.52	22157.00
725.97	22838.00
726.42	23075.00
726.86	23617.00
727.31	23422.00
727.76	23546.00
728.21	24188.00
728.65	24558.00
729.10	24499.00
729.55	25038.00
729.99	25879.00
730.44	26116.00
730.89	26525.00
731.33	27136.00
731.78	27872.00
732.23	28836.00
732.68	29306.00
733.12	29886.00
733.57	30531.00
734.02	31146.00
734.46	31578.00
734.91	31780.00
735.36	32131.00
735.80	32463.00
736.25	32531.00
736.70	33027.00
737.14	33580.00
737.59	33576.00
738.04	33967.00
738.48	33778.00
738.93	33857.00
739.37	34235.00
739.82	35232.00
740.27	35280.00
740.71	35346.00
741.16	35367.00
741.61	35609.00
742.05	35650.00
742.50	36050.00
742.94	36583.00
743.39	36846.00
743.84	37072.00
744.28	36912.00
744.73	37198.00
745.18	37421.00
745.62	37786.00
746.07	37985.00
746.51	37926.00
746.96	37910.00
747.40	37815.00
747.85	37906.00
748.30	38001.00
748.74	38035.00
749.19	37986.00
749.63	38157.00
750.08	38267.00
750.52	38255.00
750.97	38176.00
751.42	38269.00
751.86	38343.00
752.31	38338.00
752.75	38020.00
753.20	38306.00
753.64	38343.00
754.09	38433.00
754.53	38700.00
754.98	38658.00
755.42	38544.00
755.87	38514.00
756.31	38285.00
756.76	38176.00
757.20	37934.00
757.65	37484.00
758.09	37185.00
758.54	36285.00
758.98	32983.00
759.43	26495.00
759.87	19002.00
760.32	14066.00
760.76	13412.00
761.21	16180.00
761.65	20390.00
762.10	21496.00
762.54	20658.00
762.99	19444.00
763.43	19823.00
763.88	21133.00
764.32	22889.00
764.77	24711.00
765.21	26634.00
765.66	28334.00
766.10	29874.00
766.54	31629.00
766.99	32769.00
767.43	34013.00
767.88	35137.00
768.32	35800.00
768.77	36364.00
769.21	36890.00
769.66	37381.00
770.10	37577.00
770.54	38146.00
770.99	38290.00
771.43	37976.00
771.88	37932.00
772.32	37836.00
772.76	37934.00
773.21	37966.00
773.65	37758.00
774.10	37651.00
774.54	37731.00
774.98	37599.00
775.43	37997.00
775.87	38583.00
776.31	38617.00
776.76	38624.00
777.20	38323.00
777.65	37833.00
778.09	37617.00
778.53	37632.00
778.98	37486.00
779.42	37386.00
779.86	37587.00
780.31	37399.00
780.75	37815.00
781.19	37910.00
781.64	38088.00
782.08	38198.00
782.52	37910.00
782.97	37371.00
783.41	37081.00
783.85	36794.00
784.30	36788.00
784.74	36692.00
785.18	36418.00
785.63	36629.00
786.07	36737.00
786.51	36992.00
786.95	36756.00
787.40	36529.00
787.84	36482.00
788.28	36320.00
788.73	35878.00
789.17	35472.00
789.61	35062.00
790.05	34994.00
790.50	34653.00
790.94	34910.00
791.38	34733.00
791.82	35018.00
792.27	34980.00
792.71	35111.00
793.15	35338.00
793.59	35097.00
794.04	34788.00
794.48	34527.00
794.92	34224.00
795.36	34197.00
795.81	33886.00
796.25	33810.00
796.69	34028.00
797.13	34397.00
797.57	34676.00
798.02	34726.00
798.46	35020.00
798.90	34727.00
799.34	34315.00
799.79	34010.00
800.23	33448.00
800.67	33288.00
801.11	33079.00
801.55	32980.00
801.99	32926.00
802.44	33132.00
802.88	33413.00
803.32	33577.00
803.76	33796.00
804.20	33884.00
804.64	33679.00
805.09	33380.00
805.53	33463.00
805.97	33245.00
806.41	32786.00
806.85	32651.00
807.29	32438.00
807.74	32370.00
808.18	32218.00
808.62	32111.00
809.06	32120.00
809.50	32416.00
809.94	32402.00
810.38	32381.00
810.82	32485.00
811.27	32141.00
811.71	31497.00
812.15	31121.00
812.59	30189.00
813.03	29448.00
813.47	28458.00
813.91	27673.00
814.35	27508.00
814.79	27183.00
815.23	26855.00
815.67	26389.00
816.12	26692.00
816.56	26409.00
817.00	26836.00
817.44	26797.00
817.88	27071.00
818.32	26413.00
818.76	26617.00
819.20	26614.00
819.64	26642.00
820.08	27176.00
820.52	27822.00
820.96	28686.00
821.40	28062.00
821.84	27613.00
822.28	25827.00
822.72	25411.00
823.16	25257.00
823.60	26549.00
824.04	28357.00
824.48	28844.00
824.92	28872.00
825.36	28725.00
825.80	28407.00
826.24	28126.00
826.68	27747.00
827.12	27903.00
827.56	27489.00
828.00	27383.00
828.44	27642.00
828.88	27828.00
829.32	28143.00
829.76	28069.00
830.20	28643.00
830.64	28340.00
831.08	28108.00
831.52	27660.00
831.96	27456.00
832.40	26965.00
832.84	27462.00
833.28	27787.00
833.72	28081.00
834.16	28828.00
834.60	29442.00
835.04	29867.00
835.48	29815.00
835.91	29826.00
836.35	29673.00
836.79	29362.00
837.23	29321.00
837.67	28948.00
838.11	28792.00
838.55	29017.00
838.99	28970.00
839.43	29307.00
839.87	29614.00
840.30	29895.00
840.74	30527.00
841.18	30714.00
841.62	30868.00
842.06	30642.00
842.50	30624.00
842.94	30286.00
843.38	29859.00
843.81	29194.00
844.25	28985.00
844.69	28718.00
845.13	28840.00
845.57	28977.00
846.01	29230.00
846.45	29510.00
846.88	29834.00
847.32	30287.00
847.76	30488.00
848.20	30598.00
848.64	30278.00
849.08	29659.00
849.51	29435.00
849.95	28818.00
850.39	28831.00
850.83	29234.00
851.27	29080.00
851.70	28610.00
852.14	28455.00
852.58	28053.00
853.02	27273.00
853.46	26484.00
853.89	26358.00
854.33	26352.00
854.77	27313.00
855.21	29077.00
855.65	29969.00
856.08	30326.00
856.52	30377.00
856.96	30051.00
857.40	29291.00
857.83	28839.00
858.27	28539.00
858.71	28069.00
859.15	27936.00
859.58	28508.00
860.02	28474.00
860.46	28827.00
860.89	29531.00
861.33	29645.00
861.77	30110.00
862.21	30195.00
862.64	30370.00
863.08	30143.00
863.52	30002.00
863.95	29364.00
864.39	28796.00
864.83	27834.00
865.27	26664.00
865.70	26382.00
866.14	25826.00
866.58	25795.00
867.01	27185.00
867.45	28182.00
867.89	28979.00
868.32	29371.00
868.76	29629.00
869.20	29679.00
869.63	29911.00
870.07	29211.00
870.51	28504.00
870.94	27997.00
871.38	27487.00
871.82	27051.00
872.25	26799.00
872.69	26875.00
873.13	27190.00
873.56	27498.00
874.00	27801.00
874.43	28316.00
874.87	28648.00
875.31	28959.00
875.74	29012.00
876.18	29273.00
876.61	29008.00
877.05	28731.00
877.49	28192.00
877.92	28059.00
878.36	27428.00
878.79	26889.00
879.23	26410.00
879.67	26136.00
880.10	26200.00
880.54	26322.00
880.97	26642.00
881.41	27517.00
881.84	28221.00
882.28	28640.00
882.72	28897.00
883.15	29427.00
883.59	29526.00
884.02	28997.00
884.46	28715.00
884.89	28260.00
885.33	27753.00
885.76	26855.00
886.20	26331.00
886.63	26215.00
887.07	25962.00
887.50	26170.00
887.94	26202.00
888.37	26485.00
888.81	27137.00
889.24	27168.00
889.68	27402.00
890.11	27809.00
890.55	28307.00
890.98	28352.00
891.42	28363.00
891.85	27913.00
892.29	27631.00
892.72	26925.00
893.16	26039.00
893.59	25506.00
894.03	24634.00
894.46	23886.00
894.90	23259.00
895.33	22309.00
895.77	22362.00
896.20	22197.00
896.63	22302.00
897.07	22461.00
897.50	22308.00
897.94	22345.00
898.37	23279.00
898.81	22086.00
899.24	21348.00
899.68	22660.00
900.11	22237.00
900.54	21606.00
900.98	21165.00
901.41	21075.00
901.85	21129.00
902.28	21338.00
902.71	21604.00
903.15	22481.00
903.58	23151.00
904.02	23197.00
904.45	23280.00
904.88	23154.00
905.32	23100.00
905.75	23012.00
906.18	22234.00
906.62	22485.00
907.05	21836.00
907.48	21904.00
907.92	21634.00
908.35	21507.00
908.79	21109.00
909.22	20899.00
909.65	20783.00
910.09	20606.00
910.52	20215.00
910.95	20294.00
911.38	20772.00
911.82	19950.00
912.25	20434.00
912.68	20968.00
913.12	20678.00
913.55	21008.00
913.98	21438.00
914.42	22180.00
914.85	22500.00
915.28	21396.00
915.72	20910.00
916.15	20735.00
916.58	20676.00
917.01	20207.00
917.45	19514.00
917.88	20331.00
918.31	20618.00
918.74	21418.00
919.18	21834.00
919.61	21754.00
920.04	22284.00
920.47	22467.00
920.91	22655.00
921.34	22597.00
921.77	22654.00
922.20	23001.00
922.64	22973.00
923.07	22697.00
923.50	22333.00
923.93	21913.00
924.37	21633.00
924.80	21288.00
925.23	21020.00
925.66	20320.00
926.09	19353.00
926.53	19052.00
926.96	18463.00
927.39	17747.00
927.82	16921.00
928.25	16370.00
928.69	15846.00
929.12	15714.00
929.55	14866.00
929.98	14339.00
930.41	13472.00
930.84	12843.00
931.28	11917.00
931.71	11027.00
932.14	10008.00
932.57	9518.00
933.00	9162.00
933.43	8763.00
933.86	8447.00
934.30	7902.00
934.73	8862.00
935.16	8625.00
935.59	7949.00
936.02	8455.00
936.45	8310.00
936.88	8251.00
937.31	9080.00
937.75	9269.00
938.18	9848.00
938.61	10258.00
939.04	10811.00
939.47	10608.00
939.90	9938.00
940.33	9540.00
940.76	8933.00
941.19	8580.00
941.62	8350.00
942.05	8348.00
942.48	7577.00
942.91	7448.00
943.35	8096.00
943.78	7574.00
944.21	7382.00
944.64	8003.00
945.07	8263.00
945.50	7955.00
945.93	8170.00
946.36	8581.00
946.79	8700.00
947.22	9206.00
947.65	9042.00
948.08	8592.00
948.51	9129.00
948.94	9404.00
949.37	9067.00
949.80	8632.00
950.23	8688.00
950.66	9145.00
951.09	9127.00
951.52	8802.00
951.95	8908.00
952.38	9135.00
952.81	9728.00
953.24	10154.00
953.67	10494.00
954.10	10121.00
954.53	10596.00
954.96	10548.00
955.39	10700.00
955.82	11295.00
956.25	10988.00
956.68	11086.00
957.11	11431.00
957.53	11163.00
957.96	10858.00
958.39	10794.00
958.82	10432.00
959.25	10576.00
959.68	11220.00
960.11	11357.00
960.54	11418.00
960.97	12036.00
961.40	12558.00
961.83	12441.00
962.26	12480.00
962.68	13675.00
963.11	13721.00
963.54	13974.00
963.97	14042.00
964.40	13731.00
964.83	14137.00
965.26	14353.00
965.69	14059.00
966.11	13917.00
966.54	13969.00
966.97	14636.00
967.40	14899.00
967.83	15059.00
968.26	14885.00
968.69	14916.00
969.11	15194.00
969.54	15161.00
969.97	15156.00
970.40	15488.00
970.83	15473.00
971.26	15617.00
971.68	15859.00
972.11	15839.00
972.54	16016.00
972.97	16017.00
973.40	15581.00
973.82	15603.00
974.25	15474.00
974.68	15247.00
975.11	15050.00
975.54	14741.00
975.96	14565.00
976.39	14535.00
976.82	14795.00
977.25	14639.00
977.67	14547.00
978.10	14668.00
978.53	14862.00
978.96	15242.00
979.38	15446.00
979.81	15715.00
980.24	16181.00
980.67	16649.00
981.09	16731.00
981.52	16908.00
981.95	16980.00
982.38	17013.00
982.80	17032.00
983.23	17278.00
983.66	17392.00
984.08	17053.00
984.51	16985.00
984.94	16855.00
985.37	16488.00
985.79	16241.00
986.22	15949.00
986.65	15770.00
987.07	15588.00
987.50	15653.00
987.93	15670.00
988.35	15872.00
988.78	15961.00
989.21	16017.00
989.63	16327.00
990.06	16551.00
990.49	16841.00
990.91	17038.00
991.34	17189.00
991.77	17305.00
992.19	17227.00
992.62	17035.00
993.05	16881.00
993.47	16820.00
993.90	16574.00
994.32	16342.00
994.75	15994.00
995.18	15836.00
995.60	15690.00
996.03	15332.00
996.45	15263.00
996.88	15177.00
997.31	15157.00
997.73	15132.00
998.16	15100.00
998.58	15248.00
999.01	15381.00
999.44	15628.00
999.86	15767.00
1000.29	15731.00
1000.71	16010.00
1001.14	16053.00
1001.56	15911.00
1001.99	15851.00
1002.41	15534.00
1002.84	15127.00
1003.27	14968.00
1003.69	14607.00
1004.12	14404.00
1004.54	14179.00
1004.97	13886.00
1005.39	13700.00
1005.82	13671.00
1006.24	13684.00
1006.67	13535.00
1007.09	13523.00
1007.52	13574.00
1007.94	13659.00
1008.37	13852.00
1008.79	13845.00
1009.22	13856.00
1009.64	13830.00
1010.07	13747.00
1010.49	13890.00
1010.92	13932.00
1011.34	13976.00
1011.77	13848.00
1012.19	13796.00
1012.62	13702.00
1013.04	13551.00
1013.46	13312.00
1013.89	12880.00
1014.31	12700.00
1014.74	12534.00
1015.16	12421.00
1015.59	12318.00
1016.01	12489.00
1016.44	12441.00
1016.86	13364.00
1017.28	12520.00
1017.71	12575.00
1018.13	12921.00
1018.56	13080.00
1018.98	13072.00
1019.40	13070.00
1019.83	13076.00
1020.25	13129.00
1020.68	13335.00
1021.10	13319.00
1021.52	13299.00
1021.95	13695.00
1022.37	13525.00
1022.79	13438.00
1023.22	13306.00
1023.64	13127.00
1024.07	12966.00
1024.49	12829.00
1024.91	12649.00
1025.34	12514.00
1025.76	12582.00
1026.18	12496.00
1026.61	12254.00
1027.03	12191.00
1027.45	12288.00
1027.88	12239.00
1028.30	12448.00
1028.72	12434.00
1029.15	12500.00
1029.57	12667.00
1029.99	12684.00
1030.41	12527.00
1030.84	12589.00
1031.26	12515.00
1031.68	12383.00
1032.11	12281.00
1032.53	12007.00
1032.95	11964.00
1033.37	11786.00
1033.80	11778.00
1034.22	11409.00
1034.64	11388.00
1035.06	11077.00
1035.49	10989.00
1035.91	10884.00
1036.33	10685.00
1036.75	10692.00
1037.18	10543.00
1037.60	10646.00
1038.02	10655.00
1038.44	10593.00
1038.87	10558.00
1039.29	10538.00
1039.71	10648.00
1040.13	10688.00
1040.55	10584.00
1040.98	10719.00
1041.40	10566.00
1041.82	10484.00
1042.24	10306.00
1042.66	10278.00
1043.09	10116.00
1043.51	9935.00
1043.93	9735.00
1044.35	9576.00
1044.77	9522.00
1045.20	9485.00
1045.62	9295.00
1046.04	9168.00
1046.46	9120.00
1046.88	8928.00
1047.30	9013.00
1047.72	8960.00
1048.15	8850.00
1048.57	8758.00
1048.99	8824.00
1049.41	8799.00
1049.83	8783.00
1050.25	8796.00
1050.67	8666.00
1051.09	8667.00
1051.52	8655.00
1051.94	8550.00
1052.36	8593.00
1052.78	8522.00
1053.20	8438.00
1053.62	8363.00
1054.04	8436.00
1054.46	8248.00
1054.88	8206.00
1055.30	8229.00
1055.72	8064.00
1056.14	7847.00
1056.57	8013.00
1056.99	7627.00
1057.41	7570.00
1057.83	7587.00
1058.25	7385.00
1058.67	7369.00
1059.09	7314.00
1059.51	7286.00
1059.93	7246.00
1060.35	7086.00
1060.77	7139.00
1061.19	7160.00
1061.61	7051.00
1062.03	6906.00
1062.45	6957.00
1062.87	7025.00
1063.29	7005.00
1063.71	6926.00
1064.13	6913.00
1064.55	6801.00
1064.97	6802.00
1065.39	6780.00
1065.81	6722.00
1066.23	6679.00
1066.65	6578.00
1067.07	6601.00
1067.49	6406.00
1067.91	6410.00
1068.33	6318.00
1068.75	6368.00
1069.17	6288.00
1069.59	6170.00
1070.00	6101.00
1070.42	6159.00
1070.84	6057.00
1071.26	5954.00
1071.68	5926.00
1072.10	6003.00
1072.52	5978.00
1072.94	5937.00
1073.36	5864.00
1073.78	5865.00
1074.20	5852.00
1074.62	5830.00
1075.03	5871.00
1075.45	5798.00
1075.87	5841.00
1076.29	5739.00
1076.71	5863.00
1077.13	5787.00
1077.55	5662.00
1077.97	5678.00
1078.38	5546.00
1078.80	5591.00
1079.22	5543.00
1079.64	5400.00
1080.06	5324.00
1080.48	5334.00
1080.89	5314.00
1081.31	5253.00
1081.73	5245.00
1082.15	5180.00
1082.57	5266.00
1082.99	5128.00
1083.40	5083.00
1083.82	5177.00
1084.24	5023.00
1084.66	5071.00
1085.08	5014.00
1085.49	4970.00
1085.91	5053.00
1086.33	5993.00
1086.75	5026.00
1087.17	5036.00
1087.58	4927.00
1088.00	4926.00
1088.42	4971.00
1088.84	4840.00
1089.25	4864.00
1089.67	4806.00
1090.09	4769.00
1090.51	4726.00
1090.92	4659.00
1091.34	4635.00
1091.76	4585.00
1092.18	4545.00
1092.59	4470.00
1093.01	4450.00
1093.43	4446.00
1093.84	4439.00
1094.26	4424.00
1094.68	4424.00
1095.10	4309.00
1095.51	4339.00
1095.93	4311.00
1096.35	4302.00
1096.76	4327.00
1097.18	4290.00
1097.60	4215.00
1098.01	4230.00
1098.43	4196.00
1098.85	4169.00
1099.26	4112.00
1099.68	4103.00
1100.10	4065.00
1100.51	3998.00
1100.93	3983.00
1101.35	3982.00
1101.76	3959.00
1102.18	4276.00
1102.60	3914.00
1103.01	3823.00
1103.43	3850.00
1103.84	3854.00
1104.26	3846.00
1104.68	3830.00
1105.09	3735.00
1105.51	3744.00
1105.92	3801.00
1106.34	3709.00
1106.76	3710.00
1107.17	3654.00
1107.59	3655.00
1108.00	3539.00
1108.42	3604.00
1108.83	3526.00
1109.25	3532.00
1109.67	3512.00
1110.08	3489.00
1110.50	3458.00
1110.91	3501.00
1111.33	3422.00
1111.74	3382.00
1112.16	3365.00
1112.57	3373.00
1112.99	3310.00
1113.41	3287.00
1113.82	3249.00
1114.24	3209.00
1114.65	3193.00
1115.07	3077.00
1115.48	3036.00
1115.90	2175.00
1116.31	2201.00
1116.73	2199.00
1117.14	2205.00
>>>>>End Processed Spectral Data<<<<<
